"Participant_Private_ID","Participant_External_Session_ID","Sentence_ID","Sentence_Category","Sentence_Text","Trial_Order","Participant_Response","Correct_Answer","Reaction_Time","Is_Correct","Language_Total_Score","Language_Percent_Score","Practice_Outcome","Age","Gender","AI_Familiarity_Score","AI_Knowledge_Score"
14977580,"6979d0bc20b13f8163a97847",29,"Tool","When not talked to, loneliness is felt by the LETTER",1,"implausible","Implausible",841.42,1,9,100,"Passed_Immediate",41,"Male",100,0.875
14977580,"6979d0bc20b13f8163a97847",26,"Tool","When they get hungry, we feed the SOLDERING IRONS",2,"implausible","Implausible",557.52,1,9,100,"Passed_Immediate",41,"Male",100,0.875
14977580,"6979d0bc20b13f8163a97847",65,"Tool","Together, I sip wine with my TOOLBOX",3,"implausible","Implausible",705.34,1,9,100,"Passed_Immediate",41,"Male",100,0.875
14977580,"6979d0bc20b13f8163a97847",39,"Human","After they finish learning, there is a graduation party for  COLLEGE STUDENTS",4,"plausible","Plausible",569.919999999998,1,9,100,"Passed_Immediate",41,"Male",100,0.875
14977580,"6979d0bc20b13f8163a97847",24,"Human","When we yell at them, we offend the DOCTORS",5,"implausible","Plausible",1199.68,0,9,100,"Passed_Immediate",41,"Male",100,0.875
14977580,"6979d0bc20b13f8163a97847",43,"AI","When successful, happiness is felt by the SMART DEVICE",6,"implausible","Implausible",744.139999999999,1,9,100,"Passed_Immediate",41,"Male",100,0.875
14977580,"6979d0bc20b13f8163a97847",14,"Tool","We organized a birthday party for my DRILL",7,"implausible","Implausible",815.660000000003,1,9,100,"Passed_Immediate",41,"Male",100,0.875
14977580,"6979d0bc20b13f8163a97847",15,"Human","We organized a birthday party for my AUNT",8,"plausible","Plausible",744.879999999997,1,9,100,"Passed_Immediate",41,"Male",100,0.875
14977580,"6979d0bc20b13f8163a97847",57,"Human","Literature is a popular subject to choose to study for PHILOSOPHERS",9,"plausible","Plausible",1140.82,1,9,100,"Passed_Immediate",41,"Male",100,0.875
14977580,"6979d0bc20b13f8163a97847",35,"Tool","The man became a  BOTTLE",10,"implausible","Implausible",1096.2,1,9,100,"Passed_Immediate",41,"Male",100,0.875
14977580,"6979d0bc20b13f8163a97847",27,"Human","When they get hungry, we feed the IT SPECIALISTS",11,"implausible","Plausible",967.800000000003,0,9,100,"Passed_Immediate",41,"Male",100,0.875
14977580,"6979d0bc20b13f8163a97847",63,"Human","Music is fun to listen to for SINGERS",12,"plausible","Plausible",1599.54000000001,1,9,100,"Passed_Immediate",41,"Male",100,0.875
14977580,"6979d0bc20b13f8163a97847",25,"AI","When they get hungry, we feed the INTELLIGENT SYSTEMS",13,"implausible","Implausible",770.119999999995,1,9,100,"Passed_Immediate",41,"Male",100,0.875
14977580,"6979d0bc20b13f8163a97847",31,"AI","Curiosity is common in some  ALGORITHMS",14,"implausible","Implausible",1493.36,1,9,100,"Passed_Immediate",41,"Male",100,0.875
14977580,"6979d0bc20b13f8163a97847",40,"AI","All should be allowed to be who they want to be, including VIRTUAL ASSISTANTS",15,"implausible","Implausible",686.619999999995,1,9,100,"Passed_Immediate",41,"Male",100,0.875
14977580,"6979d0bc20b13f8163a97847",55,"AI","Literature is a popular subject to choose to study for ALGORITHMS",16,"implausible","Implausible",918.880000000005,1,9,100,"Passed_Immediate",41,"Male",100,0.875
14977580,"6979d0bc20b13f8163a97847",23,"Tool","When we yell at them, we offend the MIRRORS",17,"implausible","Implausible",713.600000000006,1,9,100,"Passed_Immediate",41,"Male",100,0.875
14977580,"6979d0bc20b13f8163a97847",62,"Tool","Music is fun to listen to for LAPTOPS",18,"implausible","Implausible",711.279999999999,1,9,100,"Passed_Immediate",41,"Male",100,0.875
14977580,"6979d0bc20b13f8163a97847",11,"Tool","I am going to a funeral for my HAMMER",19,"implausible","Implausible",664.259999999995,1,9,100,"Passed_Immediate",41,"Male",100,0.875
14977580,"6979d0bc20b13f8163a97847",54,"Human","Some people exploit SOCIAL WORKERS",20,"plausible","Plausible",758.140000000014,1,9,100,"Passed_Immediate",41,"Male",100,0.875
14977580,"6979d0bc20b13f8163a97847",3,"Human","The presidential candidate is an intelligent TEACHER",21,"plausible","Plausible",837.280000000013,1,9,100,"Passed_Immediate",41,"Male",100,0.875
14977580,"6979d0bc20b13f8163a97847",59,"Tool","It is nice to greet an ENGINE",22,"implausible","Implausible",865.660000000003,1,9,100,"Passed_Immediate",41,"Male",100,0.875
14977580,"6979d0bc20b13f8163a97847",50,"Tool","Friends are important for the health of TABLES",23,"implausible","Implausible",803.959999999992,1,9,100,"Passed_Immediate",41,"Male",100,0.875
14977580,"6979d0bc20b13f8163a97847",42,"Human","All should be allowed to be who they want to be, including GRAPHIC DESIGNERS",24,"plausible","Plausible",611.420000000013,1,9,100,"Passed_Immediate",41,"Male",100,0.875
14977580,"6979d0bc20b13f8163a97847",28,"AI","When not talked to, loneliness is felt by the AI",25,"implausible","Implausible",852.51999999999,1,9,100,"Passed_Immediate",41,"Male",100,0.875
14977580,"6979d0bc20b13f8163a97847",4,"AI","Living wages are deserved by all ANDROIDS",26,"implausible","Implausible",1060.60000000001,1,9,100,"Passed_Immediate",41,"Male",100,0.875
14977580,"6979d0bc20b13f8163a97847",21,"Human","Getting ready for the day is common for ZOOLOGISTS",27,"plausible","Plausible",1428.67999999999,1,9,100,"Passed_Immediate",41,"Male",100,0.875
14977580,"6979d0bc20b13f8163a97847",9,"Human","Joe is looking to marry a nice MAID",28,"plausible","Plausible",803.940000000002,1,9,100,"Passed_Immediate",41,"Male",100,0.875
14977580,"6979d0bc20b13f8163a97847",66,"Human","Together, I sip wine with my NEPHEW",29,"plausible","Plausible",552.619999999995,1,9,100,"Passed_Immediate",41,"Male",100,0.875
14977580,"6979d0bc20b13f8163a97847",12,"Human","I am going to a funeral for my UNCLE",30,"plausible","Plausible",438.899999999994,1,9,100,"Passed_Immediate",41,"Male",100,0.875
14977580,"6979d0bc20b13f8163a97847",49,"AI","Friends are important for the health of PROGRAMS",31,"implausible","Implausible",647.5,1,9,100,"Passed_Immediate",41,"Male",100,0.875
14977580,"6979d0bc20b13f8163a97847",38,"Tool","After they finish learning, there is a graduation party for WASHING MACHINES",32,"implausible","Implausible",322.399999999994,1,9,100,"Passed_Immediate",41,"Male",100,0.875
14977580,"6979d0bc20b13f8163a97847",30,"Human","When not talked to, loneliness is felt by the POET",33,"plausible","Plausible",643.899999999994,1,9,100,"Passed_Immediate",41,"Male",100,0.875
14977580,"6979d0bc20b13f8163a97847",7,"AI","Joe is looking to marry a nice BOT",34,"implausible","Implausible",552.399999999994,1,9,100,"Passed_Immediate",41,"Male",100,0.875
14977580,"6979d0bc20b13f8163a97847",51,"Human","Friends are important for the health of STUDENTS",35,"plausible","Plausible",673.260000000009,1,9,100,"Passed_Immediate",41,"Male",100,0.875
14977580,"6979d0bc20b13f8163a97847",16,"AI","She insulted the CYBORG",36,"implausible","Implausible",983.079999999987,1,9,100,"Passed_Immediate",41,"Male",100,0.875
14977580,"6979d0bc20b13f8163a97847",1,"AI","The presidential candidate is an intelligent PROGRAM",37,"implausible","Implausible",579.01999999999,1,9,100,"Passed_Immediate",41,"Male",100,0.875
14977580,"6979d0bc20b13f8163a97847",36,"Human","The man became an ACTOR",38,"plausible","Plausible",701.320000000007,1,9,100,"Passed_Immediate",41,"Male",100,0.875
14977580,"6979d0bc20b13f8163a97847",10,"AI","I am going to a funeral for my ROBOT",39,"implausible","Implausible",612.320000000007,1,9,100,"Passed_Immediate",41,"Male",100,0.875
14977580,"6979d0bc20b13f8163a97847",46,"AI","We organized a birthday party for my AI",40,"implausible","Implausible",1099.67999999999,1,9,100,"Passed_Immediate",41,"Male",100,0.875
14977580,"6979d0bc20b13f8163a97847",58,"AI","It is nice to greet an AI",41,"implausible","Implausible",556.779999999999,1,9,100,"Passed_Immediate",41,"Male",100,0.875
14977580,"6979d0bc20b13f8163a97847",19,"AI","Getting ready for the day is common for AUTOMATONS",42,"implausible","Implausible",1063.85999999999,1,9,100,"Passed_Immediate",41,"Male",100,0.875
14977580,"6979d0bc20b13f8163a97847",22,"AI","When we yell at them, we offend the ROBOTS",43,"implausible","Implausible",762.280000000028,1,9,100,"Passed_Immediate",41,"Male",100,0.875
14977580,"6979d0bc20b13f8163a97847",33,"Human","Curiosity is common in some  LIBRARIANS",44,"plausible","Plausible",1166,1,9,100,"Passed_Immediate",41,"Male",100,0.875
14977580,"6979d0bc20b13f8163a97847",17,"Tool","She insulted the SCOOTER",45,"implausible","Implausible",622.239999999991,1,9,100,"Passed_Immediate",41,"Male",100,0.875
14977580,"6979d0bc20b13f8163a97847",45,"Human","When successful, happiness is felt by the BOOK EDITOR",46,"plausible","Plausible",712.320000000007,1,9,100,"Passed_Immediate",41,"Male",100,0.875
14977580,"6979d0bc20b13f8163a97847",53,"Tool","Some people exploit FOOD PROCESSORS",47,"implausible","Implausible",745.640000000072,1,9,100,"Passed_Immediate",41,"Male",100,0.875
14977580,"6979d0bc20b13f8163a97847",13,"AI","We organized a birthday party for my DRONE",48,"implausible","Implausible",691.459999999963,1,9,100,"Passed_Immediate",41,"Male",100,0.875
14977580,"6979d0bc20b13f8163a97847",52,"AI","Some people exploit  GOOGLE ASSISTANTS",49,"plausible","Implausible",819.900000000023,0,9,100,"Passed_Immediate",41,"Male",100,0.875
14977580,"6979d0bc20b13f8163a97847",6,"Human","Living wages are deserved by all BAKERS",50,"plausible","Plausible",826.760000000009,1,9,100,"Passed_Immediate",41,"Male",100,0.875
14977580,"6979d0bc20b13f8163a97847",18,"Human","She insulted the CASHIER",51,"plausible","Plausible",768.400000000023,1,9,100,"Passed_Immediate",41,"Male",100,0.875
14977580,"6979d0bc20b13f8163a97847",34,"AI","The man became a  ROBOT",52,"implausible","Implausible",560.520000000019,1,9,100,"Passed_Immediate",41,"Male",100,0.875
14977580,"6979d0bc20b13f8163a97847",47,"Tool","We organized a birthday party for my RADIO",53,"implausible","Implausible",735.320000000007,1,9,100,"Passed_Immediate",41,"Male",100,0.875
14977580,"6979d0bc20b13f8163a97847",5,"Tool","Living wages are deserved by all TABLETS",54,"implausible","Implausible",628.979999999981,1,9,100,"Passed_Immediate",41,"Male",100,0.875
14977580,"6979d0bc20b13f8163a97847",56,"Tool","Literature is a popular subject to choose to study for DIRECTORIES",55,"implausible","Implausible",920.55999999994,1,9,100,"Passed_Immediate",41,"Male",100,0.875
14977580,"6979d0bc20b13f8163a97847",20,"Tool","Getting ready for the day is common for SYNTHESIZERS",56,"implausible","Implausible",882.320000000007,1,9,100,"Passed_Immediate",41,"Male",100,0.875
14977580,"6979d0bc20b13f8163a97847",64,"AI","Together, I sip wine with my CHATBOT",57,"implausible","Implausible",557.859999999986,1,9,100,"Passed_Immediate",41,"Male",100,0.875
14977580,"6979d0bc20b13f8163a97847",48,"Human","We organized a birthday party for my COUSIN",58,"plausible","Plausible",655.840000000026,1,9,100,"Passed_Immediate",41,"Male",100,0.875
14977580,"6979d0bc20b13f8163a97847",32,"Tool","Curiosity is common in some  CALCULATORS",59,"implausible","Implausible",628.559999999998,1,9,100,"Passed_Immediate",41,"Male",100,0.875
14977580,"6979d0bc20b13f8163a97847",2,"Tool","The presidential candidate is an intelligent PICTURE",60,"implausible","Implausible",681.559999999998,1,9,100,"Passed_Immediate",41,"Male",100,0.875
14977580,"6979d0bc20b13f8163a97847",41,"Tool","All should be allowed to be who they want to be, including ELECTRIC GUITARS",61,"implausible","Implausible",666.48000000004,1,9,100,"Passed_Immediate",41,"Male",100,0.875
14977580,"6979d0bc20b13f8163a97847",44,"Tool","When successful, happiness is felt by the TAPE MEASURE",62,"implausible","Implausible",752.219999999972,1,9,100,"Passed_Immediate",41,"Male",100,0.875
14977580,"6979d0bc20b13f8163a97847",60,"Human","It is nice to greet an ARTIST",63,"plausible","Plausible",691.260000000009,1,9,100,"Passed_Immediate",41,"Male",100,0.875
14977580,"6979d0bc20b13f8163a97847",37,"AI","After they finish learning, there is a graduation party for NEURAL NETWORKS",64,"implausible","Implausible",707.020000000019,1,9,100,"Passed_Immediate",41,"Male",100,0.875
14977580,"6979d0bc20b13f8163a97847",8,"Tool","Joe is looking to marry a nice STOVE",65,"implausible","Implausible",569.020000000019,1,9,100,"Passed_Immediate",41,"Male",100,0.875
14977580,"6979d0bc20b13f8163a97847",61,"AI","Music is fun to listen to for ANDROIDS",66,"implausible","Implausible",608.159999999974,1,9,100,"Passed_Immediate",41,"Male",100,0.875
14977579,"6979d0c23a3f734ce5a6e412",45,"Human","When successful, happiness is felt by the BOOK EDITOR",1,"plausible","Plausible",5347.30000000037,1,9,100,"Passed_Immediate",37,"Male",76,0.625
14977579,"6979d0c23a3f734ce5a6e412",63,"Human","Music is fun to listen to for SINGERS",2,"plausible","Plausible",2001.80000000037,1,9,100,"Passed_Immediate",37,"Male",76,0.625
14977579,"6979d0c23a3f734ce5a6e412",27,"Human","When they get hungry, we feed the IT SPECIALISTS",3,"plausible","Plausible",3382.90000000037,1,9,100,"Passed_Immediate",37,"Male",76,0.625
14977579,"6979d0c23a3f734ce5a6e412",51,"Human","Friends are important for the health of STUDENTS",4,"plausible","Plausible",2884,1,9,100,"Passed_Immediate",37,"Male",76,0.625
14977579,"6979d0c23a3f734ce5a6e412",26,"Tool","When they get hungry, we feed the SOLDERING IRONS",5,"implausible","Implausible",2816.50000000037,1,9,100,"Passed_Immediate",37,"Male",76,0.625
14977579,"6979d0c23a3f734ce5a6e412",37,"AI","After they finish learning, there is a graduation party for NEURAL NETWORKS",6,"implausible","Implausible",4292.40000000028,1,9,100,"Passed_Immediate",37,"Male",76,0.625
14977579,"6979d0c23a3f734ce5a6e412",55,"AI","Literature is a popular subject to choose to study for ALGORITHMS",7,"implausible","Implausible",2128.20000000009,1,9,100,"Passed_Immediate",37,"Male",76,0.625
14977579,"6979d0c23a3f734ce5a6e412",14,"Tool","We organized a birthday party for my DRILL",8,"implausible","Implausible",1737.3,1,9,100,"Passed_Immediate",37,"Male",76,0.625
14977579,"6979d0c23a3f734ce5a6e412",15,"Human","We organized a birthday party for my AUNT",9,"plausible","Plausible",1116.89999999999,1,9,100,"Passed_Immediate",37,"Male",76,0.625
14977579,"6979d0c23a3f734ce5a6e412",32,"Tool","Curiosity is common in some  CALCULATORS",10,"implausible","Implausible",1303,1,9,100,"Passed_Immediate",37,"Male",76,0.625
14977579,"6979d0c23a3f734ce5a6e412",33,"Human","Curiosity is common in some  LIBRARIANS",11,"plausible","Plausible",997.400000000285,1,9,100,"Passed_Immediate",37,"Male",76,0.625
14977579,"6979d0c23a3f734ce5a6e412",52,"AI","Some people exploit  GOOGLE ASSISTANTS",12,"plausible","Implausible",1910.80000000009,0,9,100,"Passed_Immediate",37,"Male",76,0.625
14977579,"6979d0c23a3f734ce5a6e412",5,"Tool","Living wages are deserved by all TABLETS",13,"implausible","Implausible",1777.10000000009,1,9,100,"Passed_Immediate",37,"Male",76,0.625
14977579,"6979d0c23a3f734ce5a6e412",46,"AI","We organized a birthday party for my AI",14,"implausible","Implausible",1085.80000000028,1,9,100,"Passed_Immediate",37,"Male",76,0.625
14977579,"6979d0c23a3f734ce5a6e412",19,"AI","Getting ready for the day is common for AUTOMATONS",15,"implausible","Implausible",1411.70000000019,1,9,100,"Passed_Immediate",37,"Male",76,0.625
14977579,"6979d0c23a3f734ce5a6e412",24,"Human","When we yell at them, we offend the DOCTORS",16,"plausible","Plausible",1514.30000000019,1,9,100,"Passed_Immediate",37,"Male",76,0.625
14977579,"6979d0c23a3f734ce5a6e412",39,"Human","After they finish learning, there is a graduation party for  COLLEGE STUDENTS",17,"plausible","Plausible",771.100000000093,1,9,100,"Passed_Immediate",37,"Male",76,0.625
14977579,"6979d0c23a3f734ce5a6e412",17,"Tool","She insulted the SCOOTER",18,"plausible","Implausible",2199.20000000027,0,9,100,"Passed_Immediate",37,"Male",76,0.625
14977579,"6979d0c23a3f734ce5a6e412",50,"Tool","Friends are important for the health of TABLES",19,"implausible","Implausible",1276.20000000019,1,9,100,"Passed_Immediate",37,"Male",76,0.625
14977579,"6979d0c23a3f734ce5a6e412",21,"Human","Getting ready for the day is common for ZOOLOGISTS",20,"plausible","Plausible",1553.40000000029,1,9,100,"Passed_Immediate",37,"Male",76,0.625
14977579,"6979d0c23a3f734ce5a6e412",2,"Tool","The presidential candidate is an intelligent PICTURE",21,"implausible","Implausible",1921.10000000009,1,9,100,"Passed_Immediate",37,"Male",76,0.625
14977579,"6979d0c23a3f734ce5a6e412",66,"Human","Together, I sip wine with my NEPHEW",22,"plausible","Plausible",1891.70000000019,1,9,100,"Passed_Immediate",37,"Male",76,0.625
14977579,"6979d0c23a3f734ce5a6e412",49,"AI","Friends are important for the health of PROGRAMS",23,"implausible","Implausible",1238.70000000036,1,9,100,"Passed_Immediate",37,"Male",76,0.625
14977579,"6979d0c23a3f734ce5a6e412",8,"Tool","Joe is looking to marry a nice STOVE",24,"implausible","Implausible",737.299999999988,1,9,100,"Passed_Immediate",37,"Male",76,0.625
14977579,"6979d0c23a3f734ce5a6e412",20,"Tool","Getting ready for the day is common for SYNTHESIZERS",25,"implausible","Implausible",1203.4000000002,1,9,100,"Passed_Immediate",37,"Male",76,0.625
14977579,"6979d0c23a3f734ce5a6e412",11,"Tool","I am going to a funeral for my HAMMER",26,"implausible","Implausible",723.299999999988,1,9,100,"Passed_Immediate",37,"Male",76,0.625
14977579,"6979d0c23a3f734ce5a6e412",23,"Tool","When we yell at them, we offend the MIRRORS",27,"implausible","Implausible",1398.60000000009,1,9,100,"Passed_Immediate",37,"Male",76,0.625
14977579,"6979d0c23a3f734ce5a6e412",4,"AI","Living wages are deserved by all ANDROIDS",28,"implausible","Implausible",932.700000000274,1,9,100,"Passed_Immediate",37,"Male",76,0.625
14977579,"6979d0c23a3f734ce5a6e412",53,"Tool","Some people exploit FOOD PROCESSORS",29,"implausible","Implausible",1696.20000000019,1,9,100,"Passed_Immediate",37,"Male",76,0.625
14977579,"6979d0c23a3f734ce5a6e412",9,"Human","Joe is looking to marry a nice MAID",30,"plausible","Plausible",1170.89999999999,1,9,100,"Passed_Immediate",37,"Male",76,0.625
14977579,"6979d0c23a3f734ce5a6e412",18,"Human","She insulted the CASHIER",31,"plausible","Plausible",1262.39999999999,1,9,100,"Passed_Immediate",37,"Male",76,0.625
14977579,"6979d0c23a3f734ce5a6e412",56,"Tool","Literature is a popular subject to choose to study for DIRECTORIES",32,"implausible","Implausible",2483.30000000002,1,9,100,"Passed_Immediate",37,"Male",76,0.625
14977579,"6979d0c23a3f734ce5a6e412",28,"AI","When not talked to, loneliness is felt by the AI",33,"implausible","Implausible",1042.90000000029,1,9,100,"Passed_Immediate",37,"Male",76,0.625
14977579,"6979d0c23a3f734ce5a6e412",1,"AI","The presidential candidate is an intelligent PROGRAM",34,"implausible","Implausible",978.200000000361,1,9,100,"Passed_Immediate",37,"Male",76,0.625
14977579,"6979d0c23a3f734ce5a6e412",38,"Tool","After they finish learning, there is a graduation party for WASHING MACHINES",35,"implausible","Implausible",654.400000000373,1,9,100,"Passed_Immediate",37,"Male",76,0.625
14977579,"6979d0c23a3f734ce5a6e412",60,"Human","It is nice to greet an ARTIST",36,"plausible","Plausible",1412.10000000001,1,9,100,"Passed_Immediate",37,"Male",76,0.625
14977579,"6979d0c23a3f734ce5a6e412",7,"AI","Joe is looking to marry a nice BOT",37,"implausible","Implausible",911.000000000378,1,9,100,"Passed_Immediate",37,"Male",76,0.625
14977579,"6979d0c23a3f734ce5a6e412",47,"Tool","We organized a birthday party for my RADIO",38,"implausible","Implausible",839.000000000378,1,9,100,"Passed_Immediate",37,"Male",76,0.625
14977579,"6979d0c23a3f734ce5a6e412",61,"AI","Music is fun to listen to for ANDROIDS",39,"implausible","Implausible",920.700000000012,1,9,100,"Passed_Immediate",37,"Male",76,0.625
14977579,"6979d0c23a3f734ce5a6e412",31,"AI","Curiosity is common in some  ALGORITHMS",40,"implausible","Implausible",848.800000000192,1,9,100,"Passed_Immediate",37,"Male",76,0.625
14977579,"6979d0c23a3f734ce5a6e412",43,"AI","When successful, happiness is felt by the SMART DEVICE",41,"implausible","Implausible",1262.5,1,9,100,"Passed_Immediate",37,"Male",76,0.625
14977579,"6979d0c23a3f734ce5a6e412",42,"Human","All should be allowed to be who they want to be, including GRAPHIC DESIGNERS",42,"plausible","Plausible",1145.5,1,9,100,"Passed_Immediate",37,"Male",76,0.625
14977579,"6979d0c23a3f734ce5a6e412",58,"AI","It is nice to greet an AI",43,"implausible","Implausible",1037.40000000026,1,9,100,"Passed_Immediate",37,"Male",76,0.625
14977579,"6979d0c23a3f734ce5a6e412",64,"AI","Together, I sip wine with my CHATBOT",44,"implausible","Implausible",866.299999999988,1,9,100,"Passed_Immediate",37,"Male",76,0.625
14977579,"6979d0c23a3f734ce5a6e412",29,"Tool","When not talked to, loneliness is felt by the LETTER",45,"implausible","Implausible",714.900000000198,1,9,100,"Passed_Immediate",37,"Male",76,0.625
14977579,"6979d0c23a3f734ce5a6e412",35,"Tool","The man became a  BOTTLE",46,"implausible","Implausible",782.900000000256,1,9,100,"Passed_Immediate",37,"Male",76,0.625
14977579,"6979d0c23a3f734ce5a6e412",30,"Human","When not talked to, loneliness is felt by the POET",47,"plausible","Plausible",835.600000000093,1,9,100,"Passed_Immediate",37,"Male",76,0.625
14977579,"6979d0c23a3f734ce5a6e412",22,"AI","When we yell at them, we offend the ROBOTS",48,"implausible","Implausible",1345.80000000016,1,9,100,"Passed_Immediate",37,"Male",76,0.625
14977579,"6979d0c23a3f734ce5a6e412",10,"AI","I am going to a funeral for my ROBOT",49,"implausible","Implausible",742.000000000291,1,9,100,"Passed_Immediate",37,"Male",76,0.625
14977579,"6979d0c23a3f734ce5a6e412",34,"AI","The man became a  ROBOT",50,"implausible","Implausible",4489.00000000029,1,9,100,"Passed_Immediate",37,"Male",76,0.625
14977579,"6979d0c23a3f734ce5a6e412",12,"Human","I am going to a funeral for my UNCLE",51,"plausible","Plausible",1562,1,9,100,"Passed_Immediate",37,"Male",76,0.625
14977579,"6979d0c23a3f734ce5a6e412",25,"AI","When they get hungry, we feed the INTELLIGENT SYSTEMS",52,"implausible","Implausible",838.400000000081,1,9,100,"Passed_Immediate",37,"Male",76,0.625
14977579,"6979d0c23a3f734ce5a6e412",6,"Human","Living wages are deserved by all BAKERS",53,"plausible","Plausible",1444.40000000008,1,9,100,"Passed_Immediate",37,"Male",76,0.625
14977579,"6979d0c23a3f734ce5a6e412",65,"Tool","Together, I sip wine with my TOOLBOX",54,"implausible","Implausible",723.099999999977,1,9,100,"Passed_Immediate",37,"Male",76,0.625
14977579,"6979d0c23a3f734ce5a6e412",57,"Human","Literature is a popular subject to choose to study for PHILOSOPHERS",55,"plausible","Plausible",1045.00000000035,1,9,100,"Passed_Immediate",37,"Male",76,0.625
14977579,"6979d0c23a3f734ce5a6e412",13,"AI","We organized a birthday party for my DRONE",56,"implausible","Implausible",895.300000000163,1,9,100,"Passed_Immediate",37,"Male",76,0.625
14977579,"6979d0c23a3f734ce5a6e412",41,"Tool","All should be allowed to be who they want to be, including ELECTRIC GUITARS",57,"implausible","Implausible",974.200000000012,1,9,100,"Passed_Immediate",37,"Male",76,0.625
14977579,"6979d0c23a3f734ce5a6e412",16,"AI","She insulted the CYBORG",58,"implausible","Implausible",957.400000000023,1,9,100,"Passed_Immediate",37,"Male",76,0.625
14977579,"6979d0c23a3f734ce5a6e412",48,"Human","We organized a birthday party for my COUSIN",59,"plausible","Plausible",1121.00000000029,1,9,100,"Passed_Immediate",37,"Male",76,0.625
14977579,"6979d0c23a3f734ce5a6e412",3,"Human","The presidential candidate is an intelligent TEACHER",60,"plausible","Plausible",990.500000000291,1,9,100,"Passed_Immediate",37,"Male",76,0.625
14977579,"6979d0c23a3f734ce5a6e412",44,"Tool","When successful, happiness is felt by the TAPE MEASURE",61,"implausible","Implausible",622.700000000186,1,9,100,"Passed_Immediate",37,"Male",76,0.625
14977579,"6979d0c23a3f734ce5a6e412",62,"Tool","Music is fun to listen to for LAPTOPS",62,"implausible","Implausible",975.400000000082,1,9,100,"Passed_Immediate",37,"Male",76,0.625
14977579,"6979d0c23a3f734ce5a6e412",36,"Human","The man became an ACTOR",63,"plausible","Plausible",779.700000000186,1,9,100,"Passed_Immediate",37,"Male",76,0.625
14977579,"6979d0c23a3f734ce5a6e412",59,"Tool","It is nice to greet an ENGINE",64,"implausible","Implausible",1305,1,9,100,"Passed_Immediate",37,"Male",76,0.625
14977579,"6979d0c23a3f734ce5a6e412",40,"AI","All should be allowed to be who they want to be, including VIRTUAL ASSISTANTS",65,"implausible","Implausible",1288.80000000016,1,9,100,"Passed_Immediate",37,"Male",76,0.625
14977579,"6979d0c23a3f734ce5a6e412",54,"Human","Some people exploit SOCIAL WORKERS",66,"plausible","Plausible",1326.30000000016,1,9,100,"Passed_Immediate",37,"Male",76,0.625
14977581,"6979d0b96647b34d13a7260e",21,"Human","Getting ready for the day is common for ZOOLOGISTS",1,"plausible","Plausible",2599.60000002384,1,9,100,"Passed_Immediate",28,"Male",89,0.75
14977581,"6979d0b96647b34d13a7260e",43,"AI","When successful, happiness is felt by the SMART DEVICE",2,"implausible","Implausible",3974.2,1,9,100,"Passed_Immediate",28,"Male",89,0.75
14977581,"6979d0b96647b34d13a7260e",24,"Human","When we yell at them, we offend the DOCTORS",3,"plausible","Plausible",1862.29999998808,1,9,100,"Passed_Immediate",28,"Male",89,0.75
14977581,"6979d0b96647b34d13a7260e",66,"Human","Together, I sip wine with my NEPHEW",4,"plausible","Plausible",11347.8999999762,1,9,100,"Passed_Immediate",28,"Male",89,0.75
14977581,"6979d0b96647b34d13a7260e",52,"AI","Some people exploit  GOOGLE ASSISTANTS",5,"plausible","Implausible",5278.99999998808,0,9,100,"Passed_Immediate",28,"Male",89,0.75
14977581,"6979d0b96647b34d13a7260e",47,"Tool","We organized a birthday party for my RADIO",6,"implausible","Implausible",14908.1000000238,1,9,100,"Passed_Immediate",28,"Male",89,0.75
14977581,"6979d0b96647b34d13a7260e",48,"Human","We organized a birthday party for my COUSIN",7,"plausible","Plausible",1759.1,1,9,100,"Passed_Immediate",28,"Male",89,0.75
14977581,"6979d0b96647b34d13a7260e",23,"Tool","When we yell at them, we offend the MIRRORS",8,"implausible","Implausible",4872.10000000001,1,9,100,"Passed_Immediate",28,"Male",89,0.75
14977581,"6979d0b96647b34d13a7260e",49,"AI","Friends are important for the health of PROGRAMS",9,"implausible","Implausible",1966.7,1,9,100,"Passed_Immediate",28,"Male",89,0.75
14977581,"6979d0b96647b34d13a7260e",20,"Tool","Getting ready for the day is common for SYNTHESIZERS",10,"plausible","Implausible",1508.89999997616,0,9,100,"Passed_Immediate",28,"Male",89,0.75
14977581,"6979d0b96647b34d13a7260e",64,"AI","Together, I sip wine with my CHATBOT",11,"implausible","Implausible",1936.80000001192,1,9,100,"Passed_Immediate",28,"Male",89,0.75
14977581,"6979d0b96647b34d13a7260e",10,"AI","I am going to a funeral for my ROBOT",12,"implausible","Implausible",2873.09999997616,1,9,100,"Passed_Immediate",28,"Male",89,0.75
14977581,"6979d0b96647b34d13a7260e",11,"Tool","I am going to a funeral for my HAMMER",13,"implausible","Implausible",1567.69999998808,1,9,100,"Passed_Immediate",28,"Male",89,0.75
14977581,"6979d0b96647b34d13a7260e",17,"Tool","She insulted the SCOOTER",14,"implausible","Implausible",1331.70000001192,1,9,100,"Passed_Immediate",28,"Male",89,0.75
14977581,"6979d0b96647b34d13a7260e",28,"AI","When not talked to, loneliness is felt by the AI",15,"implausible","Implausible",4774.29999999999,1,9,100,"Passed_Immediate",28,"Male",89,0.75
14977581,"6979d0b96647b34d13a7260e",58,"AI","It is nice to greet an AI",16,"plausible","Implausible",1940.10000000001,0,9,100,"Passed_Immediate",28,"Male",89,0.75
14977581,"6979d0b96647b34d13a7260e",13,"AI","We organized a birthday party for my DRONE",17,"implausible","Implausible",10304.9000000238,1,9,100,"Passed_Immediate",28,"Male",89,0.75
14977581,"6979d0b96647b34d13a7260e",59,"Tool","It is nice to greet an ENGINE",18,"implausible","Implausible",13971.3,1,9,100,"Passed_Immediate",28,"Male",89,0.75
14977581,"6979d0b96647b34d13a7260e",12,"Human","I am going to a funeral for my UNCLE",19,"implausible","Plausible",5856.90000002383,0,9,100,"Passed_Immediate",28,"Male",89,0.75
14977581,"6979d0b96647b34d13a7260e",33,"Human","Curiosity is common in some  LIBRARIANS",20,"plausible","Plausible",6591.59999997617,1,9,100,"Passed_Immediate",28,"Male",89,0.75
14977581,"6979d0b96647b34d13a7260e",7,"AI","Joe is looking to marry a nice BOT",21,"implausible","Implausible",3358.79999997615,1,9,100,"Passed_Immediate",28,"Male",89,0.75
14977581,"6979d0b96647b34d13a7260e",41,"Tool","All should be allowed to be who they want to be, including ELECTRIC GUITARS",22,"plausible","Implausible",1906.00000002384,0,9,100,"Passed_Immediate",28,"Male",89,0.75
14977581,"6979d0b96647b34d13a7260e",42,"Human","All should be allowed to be who they want to be, including GRAPHIC DESIGNERS",23,"plausible","Plausible",762.599999988073,1,9,100,"Passed_Immediate",28,"Male",89,0.75
14977581,"6979d0b96647b34d13a7260e",2,"Tool","The presidential candidate is an intelligent PICTURE",24,"implausible","Implausible",3211.30000001192,1,9,100,"Passed_Immediate",28,"Male",89,0.75
14977581,"6979d0b96647b34d13a7260e",51,"Human","Friends are important for the health of STUDENTS",25,"plausible","Plausible",5511.89999997616,1,9,100,"Passed_Immediate",28,"Male",89,0.75
14977581,"6979d0b96647b34d13a7260e",31,"AI","Curiosity is common in some  ALGORITHMS",26,"plausible","Implausible",9090.29999997615,0,9,100,"Passed_Immediate",28,"Male",89,0.75
14977581,"6979d0b96647b34d13a7260e",57,"Human","Literature is a popular subject to choose to study for PHILOSOPHERS",27,"plausible","Plausible",9020.20000002385,1,9,100,"Passed_Immediate",28,"Male",89,0.75
14977581,"6979d0b96647b34d13a7260e",55,"AI","Literature is a popular subject to choose to study for ALGORITHMS",28,"plausible","Implausible",10204.3999999762,0,9,100,"Passed_Immediate",28,"Male",89,0.75
14977581,"6979d0b96647b34d13a7260e",45,"Human","When successful, happiness is felt by the BOOK EDITOR",29,"plausible","Plausible",1946.49999997613,1,9,100,"Passed_Immediate",28,"Male",89,0.75
14977581,"6979d0b96647b34d13a7260e",40,"AI","All should be allowed to be who they want to be, including VIRTUAL ASSISTANTS",30,"plausible","Implausible",3739.79999999999,0,9,100,"Passed_Immediate",28,"Male",89,0.75
14977581,"6979d0b96647b34d13a7260e",9,"Human","Joe is looking to marry a nice MAID",31,"plausible","Plausible",8312.60000002384,1,9,100,"Passed_Immediate",28,"Male",89,0.75
14977581,"6979d0b96647b34d13a7260e",32,"Tool","Curiosity is common in some  CALCULATORS",32,"implausible","Implausible",2023.5,1,9,100,"Passed_Immediate",28,"Male",89,0.75
14977581,"6979d0b96647b34d13a7260e",6,"Human","Living wages are deserved by all BAKERS",33,"plausible","Plausible",9267.49999998807,1,9,100,"Passed_Immediate",28,"Male",89,0.75
14977581,"6979d0b96647b34d13a7260e",62,"Tool","Music is fun to listen to for LAPTOPS",34,"implausible","Implausible",1206.50000001193,1,9,100,"Passed_Immediate",28,"Male",89,0.75
14977581,"6979d0b96647b34d13a7260e",30,"Human","When not talked to, loneliness is felt by the POET",35,"plausible","Plausible",2151.30000002385,1,9,100,"Passed_Immediate",28,"Male",89,0.75
14977581,"6979d0b96647b34d13a7260e",34,"AI","The man became a  ROBOT",36,"plausible","Implausible",17950.7999999881,0,9,100,"Passed_Immediate",28,"Male",89,0.75
14977581,"6979d0b96647b34d13a7260e",14,"Tool","We organized a birthday party for my DRILL",37,"implausible","Implausible",2171.99999998807,1,9,100,"Passed_Immediate",28,"Male",89,0.75
14977581,"6979d0b96647b34d13a7260e",18,"Human","She insulted the CASHIER",38,"plausible","Plausible",2095.39999997616,1,9,100,"Passed_Immediate",28,"Male",89,0.75
14977581,"6979d0b96647b34d13a7260e",26,"Tool","When they get hungry, we feed the SOLDERING IRONS",39,"implausible","Implausible",3730.30000002385,1,9,100,"Passed_Immediate",28,"Male",89,0.75
14977581,"6979d0b96647b34d13a7260e",22,"AI","When we yell at them, we offend the ROBOTS",40,"implausible","Implausible",1412.39999998809,1,9,100,"Passed_Immediate",28,"Male",89,0.75
14977581,"6979d0b96647b34d13a7260e",1,"AI","The presidential candidate is an intelligent PROGRAM",41,"implausible","Implausible",5981.09999999998,1,9,100,"Passed_Immediate",28,"Male",89,0.75
14977581,"6979d0b96647b34d13a7260e",8,"Tool","Joe is looking to marry a nice STOVE",42,"implausible","Implausible",1456.70000001194,1,9,100,"Passed_Immediate",28,"Male",89,0.75
14977581,"6979d0b96647b34d13a7260e",25,"AI","When they get hungry, we feed the INTELLIGENT SYSTEMS",43,"implausible","Implausible",3046.5,1,9,100,"Passed_Immediate",28,"Male",89,0.75
14977581,"6979d0b96647b34d13a7260e",56,"Tool","Literature is a popular subject to choose to study for DIRECTORIES",44,"plausible","Implausible",1573.29999998806,0,9,100,"Passed_Immediate",28,"Male",89,0.75
14977581,"6979d0b96647b34d13a7260e",38,"Tool","After they finish learning, there is a graduation party for WASHING MACHINES",45,"implausible","Implausible",4873,1,9,100,"Passed_Immediate",28,"Male",89,0.75
14977581,"6979d0b96647b34d13a7260e",46,"AI","We organized a birthday party for my AI",46,"implausible","Implausible",5034.60000002384,1,9,100,"Passed_Immediate",28,"Male",89,0.75
14977581,"6979d0b96647b34d13a7260e",63,"Human","Music is fun to listen to for SINGERS",47,"plausible","Plausible",4474.5,1,9,100,"Passed_Immediate",28,"Male",89,0.75
14977581,"6979d0b96647b34d13a7260e",61,"AI","Music is fun to listen to for ANDROIDS",48,"implausible","Implausible",7080.19999998808,1,9,100,"Passed_Immediate",28,"Male",89,0.75
14977581,"6979d0b96647b34d13a7260e",39,"Human","After they finish learning, there is a graduation party for  COLLEGE STUDENTS",49,"plausible","Plausible",4113.19999997615,1,9,100,"Passed_Immediate",28,"Male",89,0.75
14977581,"6979d0b96647b34d13a7260e",3,"Human","The presidential candidate is an intelligent TEACHER",50,"implausible","Plausible",7836.40000002383,0,9,100,"Passed_Immediate",28,"Male",89,0.75
14977581,"6979d0b96647b34d13a7260e",29,"Tool","When not talked to, loneliness is felt by the LETTER",51,"implausible","Implausible",10140.4999999761,1,9,100,"Passed_Immediate",28,"Male",89,0.75
14977581,"6979d0b96647b34d13a7260e",65,"Tool","Together, I sip wine with my TOOLBOX",52,"implausible","Implausible",7113.80000002385,1,9,100,"Passed_Immediate",28,"Male",89,0.75
14977581,"6979d0b96647b34d13a7260e",15,"Human","We organized a birthday party for my AUNT",53,"plausible","Plausible",1312.19999999995,1,9,100,"Passed_Immediate",28,"Male",89,0.75
14977581,"6979d0b96647b34d13a7260e",4,"AI","Living wages are deserved by all ANDROIDS",54,"implausible","Implausible",1761.80000000005,1,9,100,"Passed_Immediate",28,"Male",89,0.75
14977581,"6979d0b96647b34d13a7260e",27,"Human","When they get hungry, we feed the IT SPECIALISTS",55,"implausible","Plausible",1178.39999998803,0,9,100,"Passed_Immediate",28,"Male",89,0.75
14977581,"6979d0b96647b34d13a7260e",5,"Tool","Living wages are deserved by all TABLETS",56,"implausible","Implausible",1445.70000002382,1,9,100,"Passed_Immediate",28,"Male",89,0.75
14977581,"6979d0b96647b34d13a7260e",44,"Tool","When successful, happiness is felt by the TAPE MEASURE",57,"implausible","Implausible",5530.00000002387,1,9,100,"Passed_Immediate",28,"Male",89,0.75
14977581,"6979d0b96647b34d13a7260e",36,"Human","The man became an ACTOR",58,"plausible","Plausible",12889.399999988,1,9,100,"Passed_Immediate",28,"Male",89,0.75
14977581,"6979d0b96647b34d13a7260e",53,"Tool","Some people exploit FOOD PROCESSORS",59,"plausible","Implausible",3061.90000002389,0,9,100,"Passed_Immediate",28,"Male",89,0.75
14977581,"6979d0b96647b34d13a7260e",16,"AI","She insulted the CYBORG",60,"implausible","Implausible",5551.0999999881,1,9,100,"Passed_Immediate",28,"Male",89,0.75
14977581,"6979d0b96647b34d13a7260e",50,"Tool","Friends are important for the health of TABLES",61,"implausible","Implausible",1934.40000002389,1,9,100,"Passed_Immediate",28,"Male",89,0.75
14977581,"6979d0b96647b34d13a7260e",35,"Tool","The man became a  BOTTLE",62,"implausible","Implausible",2231,1,9,100,"Passed_Immediate",28,"Male",89,0.75
14977581,"6979d0b96647b34d13a7260e",54,"Human","Some people exploit SOCIAL WORKERS",63,"plausible","Plausible",7120.00000002387,1,9,100,"Passed_Immediate",28,"Male",89,0.75
14977581,"6979d0b96647b34d13a7260e",37,"AI","After they finish learning, there is a graduation party for NEURAL NETWORKS",64,"plausible","Implausible",5889.50000001187,0,9,100,"Passed_Immediate",28,"Male",89,0.75
14977581,"6979d0b96647b34d13a7260e",19,"AI","Getting ready for the day is common for AUTOMATONS",65,"implausible","Implausible",2168.79999997618,1,9,100,"Passed_Immediate",28,"Male",89,0.75
14977581,"6979d0b96647b34d13a7260e",60,"Human","It is nice to greet an ARTIST",66,"plausible","Plausible",1969.40000002389,1,9,100,"Passed_Immediate",28,"Male",89,0.75
14977582,"6979d0bf66217df7944e5996",35,"Tool","The man became a  BOTTLE",1,"implausible","Implausible",607.4,1,9,100,"Passed_Immediate",33,"Female",61,0.5
14977582,"6979d0bf66217df7944e5996",47,"Tool","We organized a birthday party for my RADIO",2,"implausible","Implausible",747.60000000298,1,9,100,"Passed_Immediate",33,"Female",61,0.5
14977582,"6979d0bf66217df7944e5996",61,"AI","Music is fun to listen to for ANDROIDS",3,"implausible","Implausible",1155.19999999404,1,9,100,"Passed_Immediate",33,"Female",61,0.5
14977582,"6979d0bf66217df7944e5996",66,"Human","Together, I sip wine with my NEPHEW",4,"implausible","Plausible",7148.69999999404,0,9,100,"Passed_Immediate",33,"Female",61,0.5
14977582,"6979d0bf66217df7944e5996",16,"AI","She insulted the CYBORG",5,"implausible","Implausible",9730.59999999106,1,9,100,"Passed_Immediate",33,"Female",61,0.5
14977582,"6979d0bf66217df7944e5996",6,"Human","Living wages are deserved by all BAKERS",6,"plausible","Plausible",951.5,1,9,100,"Passed_Immediate",33,"Female",61,0.5
14977582,"6979d0bf66217df7944e5996",26,"Tool","When they get hungry, we feed the SOLDERING IRONS",7,"implausible","Implausible",816.29999999702,1,9,100,"Passed_Immediate",33,"Female",61,0.5
14977582,"6979d0bf66217df7944e5996",57,"Human","Literature is a popular subject to choose to study for PHILOSOPHERS",8,"implausible","Plausible",2696.89999999106,0,9,100,"Passed_Immediate",33,"Female",61,0.5
14977582,"6979d0bf66217df7944e5996",40,"AI","All should be allowed to be who they want to be, including VIRTUAL ASSISTANTS",9,"implausible","Implausible",952.499999997017,1,9,100,"Passed_Immediate",33,"Female",61,0.5
14977582,"6979d0bf66217df7944e5996",50,"Tool","Friends are important for the health of TABLES",10,"implausible","Implausible",759.399999997026,1,9,100,"Passed_Immediate",33,"Female",61,0.5
14977582,"6979d0bf66217df7944e5996",29,"Tool","When not talked to, loneliness is felt by the LETTER",11,"implausible","Implausible",1028.99999999702,1,9,100,"Passed_Immediate",33,"Female",61,0.5
14977582,"6979d0bf66217df7944e5996",38,"Tool","After they finish learning, there is a graduation party for WASHING MACHINES",12,"implausible","Implausible",400.099999999991,1,9,100,"Passed_Immediate",33,"Female",61,0.5
14977582,"6979d0bf66217df7944e5996",11,"Tool","I am going to a funeral for my HAMMER",13,"implausible","Implausible",465.300000002986,1,9,100,"Passed_Immediate",33,"Female",61,0.5
14977582,"6979d0bf66217df7944e5996",5,"Tool","Living wages are deserved by all TABLETS",14,"implausible","Implausible",646.899999997026,1,9,100,"Passed_Immediate",33,"Female",61,0.5
14977582,"6979d0bf66217df7944e5996",34,"AI","The man became a  ROBOT",15,"implausible","Implausible",798.000000002983,1,9,100,"Passed_Immediate",33,"Female",61,0.5
14977582,"6979d0bf66217df7944e5996",45,"Human","When successful, happiness is felt by the BOOK EDITOR",16,"plausible","Plausible",1166.19999999701,1,9,100,"Passed_Immediate",33,"Female",61,0.5
14977582,"6979d0bf66217df7944e5996",25,"AI","When they get hungry, we feed the INTELLIGENT SYSTEMS",17,"implausible","Implausible",976.899999999994,1,9,100,"Passed_Immediate",33,"Female",61,0.5
14977582,"6979d0bf66217df7944e5996",28,"AI","When not talked to, loneliness is felt by the AI",18,"implausible","Implausible",725.699999999997,1,9,100,"Passed_Immediate",33,"Female",61,0.5
14977582,"6979d0bf66217df7944e5996",24,"Human","When we yell at them, we offend the DOCTORS",19,"plausible","Plausible",1001.19999999405,1,9,100,"Passed_Immediate",33,"Female",61,0.5
14977582,"6979d0bf66217df7944e5996",22,"AI","When we yell at them, we offend the ROBOTS",20,"implausible","Implausible",400.100000000006,1,9,100,"Passed_Immediate",33,"Female",61,0.5
14977582,"6979d0bf66217df7944e5996",7,"AI","Joe is looking to marry a nice BOT",21,"implausible","Implausible",533.299999999988,1,9,100,"Passed_Immediate",33,"Female",61,0.5
14977582,"6979d0bf66217df7944e5996",12,"Human","I am going to a funeral for my UNCLE",22,"plausible","Plausible",529.199999994045,1,9,100,"Passed_Immediate",33,"Female",61,0.5
14977582,"6979d0bf66217df7944e5996",4,"AI","Living wages are deserved by all ANDROIDS",23,"implausible","Implausible",692.699999997014,1,9,100,"Passed_Immediate",33,"Female",61,0.5
14977582,"6979d0bf66217df7944e5996",39,"Human","After they finish learning, there is a graduation party for  COLLEGE STUDENTS",24,"plausible","Plausible",413.20000000298,1,9,100,"Passed_Immediate",33,"Female",61,0.5
14977582,"6979d0bf66217df7944e5996",51,"Human","Friends are important for the health of STUDENTS",25,"plausible","Plausible",530.5,1,9,100,"Passed_Immediate",33,"Female",61,0.5
14977582,"6979d0bf66217df7944e5996",31,"AI","Curiosity is common in some  ALGORITHMS",26,"implausible","Implausible",1304.60000000297,1,9,100,"Passed_Immediate",33,"Female",61,0.5
14977582,"6979d0bf66217df7944e5996",44,"Tool","When successful, happiness is felt by the TAPE MEASURE",27,"implausible","Implausible",772.199999997014,1,9,100,"Passed_Immediate",33,"Female",61,0.5
14977582,"6979d0bf66217df7944e5996",54,"Human","Some people exploit SOCIAL WORKERS",28,"plausible","Plausible",1061.29999999405,1,9,100,"Passed_Immediate",33,"Female",61,0.5
14977582,"6979d0bf66217df7944e5996",18,"Human","She insulted the CASHIER",29,"plausible","Plausible",702.900000002992,1,9,100,"Passed_Immediate",33,"Female",61,0.5
14977582,"6979d0bf66217df7944e5996",19,"AI","Getting ready for the day is common for AUTOMATONS",30,"implausible","Implausible",627.299999994051,1,9,100,"Passed_Immediate",33,"Female",61,0.5
14977582,"6979d0bf66217df7944e5996",27,"Human","When they get hungry, we feed the IT SPECIALISTS",31,"plausible","Plausible",938.70000000298,1,9,100,"Passed_Immediate",33,"Female",61,0.5
14977582,"6979d0bf66217df7944e5996",59,"Tool","It is nice to greet an ENGINE",32,"implausible","Implausible",829.799999994051,1,9,100,"Passed_Immediate",33,"Female",61,0.5
14977582,"6979d0bf66217df7944e5996",33,"Human","Curiosity is common in some  LIBRARIANS",33,"plausible","Plausible",968.299999991054,1,9,100,"Passed_Immediate",33,"Female",61,0.5
14977582,"6979d0bf66217df7944e5996",23,"Tool","When we yell at them, we offend the MIRRORS",34,"implausible","Implausible",738.000000002969,1,9,100,"Passed_Immediate",33,"Female",61,0.5
14977582,"6979d0bf66217df7944e5996",13,"AI","We organized a birthday party for my DRONE",35,"implausible","Implausible",985,1,9,100,"Passed_Immediate",33,"Female",61,0.5
14977582,"6979d0bf66217df7944e5996",37,"AI","After they finish learning, there is a graduation party for NEURAL NETWORKS",36,"implausible","Implausible",1077.39999999703,1,9,100,"Passed_Immediate",33,"Female",61,0.5
14977582,"6979d0bf66217df7944e5996",9,"Human","Joe is looking to marry a nice MAID",37,"plausible","Plausible",750.099999999977,1,9,100,"Passed_Immediate",33,"Female",61,0.5
14977582,"6979d0bf66217df7944e5996",41,"Tool","All should be allowed to be who they want to be, including ELECTRIC GUITARS",38,"implausible","Implausible",813.999999991065,1,9,100,"Passed_Immediate",33,"Female",61,0.5
14977582,"6979d0bf66217df7944e5996",60,"Human","It is nice to greet an ARTIST",39,"plausible","Plausible",725.399999997026,1,9,100,"Passed_Immediate",33,"Female",61,0.5
14977582,"6979d0bf66217df7944e5996",10,"AI","I am going to a funeral for my ROBOT",40,"implausible","Implausible",599.999999999971,1,9,100,"Passed_Immediate",33,"Female",61,0.5
14977582,"6979d0bf66217df7944e5996",15,"Human","We organized a birthday party for my AUNT",41,"plausible","Plausible",773.800000002986,1,9,100,"Passed_Immediate",33,"Female",61,0.5
14977582,"6979d0bf66217df7944e5996",36,"Human","The man became an ACTOR",42,"plausible","Plausible",709.899999999994,1,9,100,"Passed_Immediate",33,"Female",61,0.5
14977582,"6979d0bf66217df7944e5996",65,"Tool","Together, I sip wine with my TOOLBOX",43,"implausible","Implausible",642.999999994063,1,9,100,"Passed_Immediate",33,"Female",61,0.5
14977582,"6979d0bf66217df7944e5996",58,"AI","It is nice to greet an AI",44,"implausible","Implausible",816.500000000058,1,9,100,"Passed_Immediate",33,"Female",61,0.5
14977582,"6979d0bf66217df7944e5996",52,"AI","Some people exploit  GOOGLE ASSISTANTS",45,"implausible","Implausible",2225.29999999702,1,9,100,"Passed_Immediate",33,"Female",61,0.5
14977582,"6979d0bf66217df7944e5996",17,"Tool","She insulted the SCOOTER",46,"implausible","Implausible",733.20000000007,1,9,100,"Passed_Immediate",33,"Female",61,0.5
14977582,"6979d0bf66217df7944e5996",42,"Human","All should be allowed to be who they want to be, including GRAPHIC DESIGNERS",47,"plausible","Plausible",491.799999994051,1,9,100,"Passed_Immediate",33,"Female",61,0.5
14977582,"6979d0bf66217df7944e5996",20,"Tool","Getting ready for the day is common for SYNTHESIZERS",48,"implausible","Implausible",920.900000000023,1,9,100,"Passed_Immediate",33,"Female",61,0.5
14977582,"6979d0bf66217df7944e5996",8,"Tool","Joe is looking to marry a nice STOVE",49,"implausible","Implausible",615.099999991071,1,9,100,"Passed_Immediate",33,"Female",61,0.5
14977582,"6979d0bf66217df7944e5996",53,"Tool","Some people exploit FOOD PROCESSORS",50,"implausible","Implausible",448.099999991071,1,9,100,"Passed_Immediate",33,"Female",61,0.5
14977582,"6979d0bf66217df7944e5996",32,"Tool","Curiosity is common in some  CALCULATORS",51,"implausible","Implausible",1290.69999999704,1,9,100,"Passed_Immediate",33,"Female",61,0.5
14977582,"6979d0bf66217df7944e5996",46,"AI","We organized a birthday party for my AI",52,"implausible","Implausible",779.29999999702,1,9,100,"Passed_Immediate",33,"Female",61,0.5
14977582,"6979d0bf66217df7944e5996",21,"Human","Getting ready for the day is common for ZOOLOGISTS",53,"plausible","Plausible",1228.69999999704,1,9,100,"Passed_Immediate",33,"Female",61,0.5
14977582,"6979d0bf66217df7944e5996",49,"AI","Friends are important for the health of PROGRAMS",54,"implausible","Implausible",3056.20000000001,1,9,100,"Passed_Immediate",33,"Female",61,0.5
14977582,"6979d0bf66217df7944e5996",62,"Tool","Music is fun to listen to for LAPTOPS",55,"implausible","Implausible",729.099999999977,1,9,100,"Passed_Immediate",33,"Female",61,0.5
14977582,"6979d0bf66217df7944e5996",43,"AI","When successful, happiness is felt by the SMART DEVICE",56,"implausible","Implausible",941.399999991059,1,9,100,"Passed_Immediate",33,"Female",61,0.5
14977582,"6979d0bf66217df7944e5996",1,"AI","The presidential candidate is an intelligent PROGRAM",57,"implausible","Implausible",1328.399999997,1,9,100,"Passed_Immediate",33,"Female",61,0.5
14977582,"6979d0bf66217df7944e5996",2,"Tool","The presidential candidate is an intelligent PICTURE",58,"implausible","Implausible",899.399999991059,1,9,100,"Passed_Immediate",33,"Female",61,0.5
14977582,"6979d0bf66217df7944e5996",48,"Human","We organized a birthday party for my COUSIN",59,"plausible","Plausible",595.899999996996,1,9,100,"Passed_Immediate",33,"Female",61,0.5
14977582,"6979d0bf66217df7944e5996",56,"Tool","Literature is a popular subject to choose to study for DIRECTORIES",60,"implausible","Implausible",1397.00000000297,1,9,100,"Passed_Immediate",33,"Female",61,0.5
14977582,"6979d0bf66217df7944e5996",30,"Human","When not talked to, loneliness is felt by the POET",61,"plausible","Plausible",905.400000000023,1,9,100,"Passed_Immediate",33,"Female",61,0.5
14977582,"6979d0bf66217df7944e5996",14,"Tool","We organized a birthday party for my DRILL",62,"implausible","Implausible",616.599999999977,1,9,100,"Passed_Immediate",33,"Female",61,0.5
14977582,"6979d0bf66217df7944e5996",63,"Human","Music is fun to listen to for SINGERS",63,"plausible","Plausible",1030.89999999106,1,9,100,"Passed_Immediate",33,"Female",61,0.5
14977582,"6979d0bf66217df7944e5996",3,"Human","The presidential candidate is an intelligent TEACHER",64,"plausible","Plausible",2052.69999999105,1,9,100,"Passed_Immediate",33,"Female",61,0.5
14977582,"6979d0bf66217df7944e5996",64,"AI","Together, I sip wine with my CHATBOT",65,"implausible","Implausible",602.299999994051,1,9,100,"Passed_Immediate",33,"Female",61,0.5
14977582,"6979d0bf66217df7944e5996",55,"AI","Literature is a popular subject to choose to study for ALGORITHMS",66,"implausible","Implausible",602.299999994051,1,9,100,"Passed_Immediate",33,"Female",61,0.5
14977583,"6979d0c48cac144bbcef94e9",55,"AI","Literature is a popular subject to choose to study for ALGORITHMS",1,"implausible","Implausible",1169.29999990463,1,9,100,"Passed_Immediate",34,"Female",63,0.5
14977583,"6979d0c48cac144bbcef94e9",29,"Tool","When not talked to, loneliness is felt by the LETTER",2,"plausible","Implausible",1219.99999992847,0,9,100,"Passed_Immediate",34,"Female",63,0.5
14977583,"6979d0c48cac144bbcef94e9",12,"Human","I am going to a funeral for my UNCLE",3,"plausible","Plausible",921.499999952317,1,9,100,"Passed_Immediate",34,"Female",63,0.5
14977583,"6979d0c48cac144bbcef94e9",4,"AI","Living wages are deserved by all ANDROIDS",4,"implausible","Implausible",1325.39999992848,1,9,100,"Passed_Immediate",34,"Female",63,0.5
14977583,"6979d0c48cac144bbcef94e9",50,"Tool","Friends are important for the health of TABLES",5,"implausible","Implausible",795.999999928474,1,9,100,"Passed_Immediate",34,"Female",63,0.5
14977583,"6979d0c48cac144bbcef94e9",58,"AI","It is nice to greet an AI",6,"implausible","Implausible",929.999999952317,1,9,100,"Passed_Immediate",34,"Female",63,0.5
14977583,"6979d0c48cac144bbcef94e9",26,"Tool","When they get hungry, we feed the SOLDERING IRONS",7,"implausible","Implausible",971.800000000003,1,9,100,"Passed_Immediate",34,"Female",63,0.5
14977583,"6979d0c48cac144bbcef94e9",2,"Tool","The presidential candidate is an intelligent PICTURE",8,"implausible","Implausible",1559,1,9,100,"Passed_Immediate",34,"Female",63,0.5
14977583,"6979d0c48cac144bbcef94e9",62,"Tool","Music is fun to listen to for LAPTOPS",9,"implausible","Implausible",1376.9,1,9,100,"Passed_Immediate",34,"Female",63,0.5
14977583,"6979d0c48cac144bbcef94e9",28,"AI","When not talked to, loneliness is felt by the AI",10,"implausible","Implausible",2568.09999997616,1,9,100,"Passed_Immediate",34,"Female",63,0.5
14977583,"6979d0c48cac144bbcef94e9",17,"Tool","She insulted the SCOOTER",11,"implausible","Implausible",1333.89999990464,1,9,100,"Passed_Immediate",34,"Female",63,0.5
14977583,"6979d0c48cac144bbcef94e9",45,"Human","When successful, happiness is felt by the BOOK EDITOR",12,"plausible","Plausible",3325.19999990464,1,9,100,"Passed_Immediate",34,"Female",63,0.5
14977583,"6979d0c48cac144bbcef94e9",1,"AI","The presidential candidate is an intelligent PROGRAM",13,"implausible","Implausible",1151.09999992847,1,9,100,"Passed_Immediate",34,"Female",63,0.5
14977583,"6979d0c48cac144bbcef94e9",20,"Tool","Getting ready for the day is common for SYNTHESIZERS",14,"implausible","Implausible",4749.39999990464,1,9,100,"Passed_Immediate",34,"Female",63,0.5
14977583,"6979d0c48cac144bbcef94e9",9,"Human","Joe is looking to marry a nice MAID",15,"plausible","Plausible",1414.10000000001,1,9,100,"Passed_Immediate",34,"Female",63,0.5
14977583,"6979d0c48cac144bbcef94e9",52,"AI","Some people exploit  GOOGLE ASSISTANTS",16,"plausible","Implausible",1480.19999995231,0,9,100,"Passed_Immediate",34,"Female",63,0.5
14977583,"6979d0c48cac144bbcef94e9",21,"Human","Getting ready for the day is common for ZOOLOGISTS",17,"plausible","Plausible",1470.7,1,9,100,"Passed_Immediate",34,"Female",63,0.5
14977583,"6979d0c48cac144bbcef94e9",24,"Human","When we yell at them, we offend the DOCTORS",18,"plausible","Plausible",859.599999904633,1,9,100,"Passed_Immediate",34,"Female",63,0.5
14977583,"6979d0c48cac144bbcef94e9",35,"Tool","The man became a  BOTTLE",19,"implausible","Implausible",1229.19999995231,1,9,100,"Passed_Immediate",34,"Female",63,0.5
14977583,"6979d0c48cac144bbcef94e9",34,"AI","The man became a  ROBOT",20,"implausible","Implausible",1122.09999992847,1,9,100,"Passed_Immediate",34,"Female",63,0.5
14977583,"6979d0c48cac144bbcef94e9",33,"Human","Curiosity is common in some  LIBRARIANS",21,"plausible","Plausible",1496.79999990463,1,9,100,"Passed_Immediate",34,"Female",63,0.5
14977583,"6979d0c48cac144bbcef94e9",31,"AI","Curiosity is common in some  ALGORITHMS",22,"implausible","Implausible",1649.39999995232,1,9,100,"Passed_Immediate",34,"Female",63,0.5
14977583,"6979d0c48cac144bbcef94e9",66,"Human","Together, I sip wine with my NEPHEW",23,"plausible","Plausible",1426.39999995232,1,9,100,"Passed_Immediate",34,"Female",63,0.5
14977583,"6979d0c48cac144bbcef94e9",49,"AI","Friends are important for the health of PROGRAMS",24,"implausible","Implausible",913.299999904644,1,9,100,"Passed_Immediate",34,"Female",63,0.5
14977583,"6979d0c48cac144bbcef94e9",8,"Tool","Joe is looking to marry a nice STOVE",25,"implausible","Implausible",663.899999904621,1,9,100,"Passed_Immediate",34,"Female",63,0.5
14977583,"6979d0c48cac144bbcef94e9",39,"Human","After they finish learning, there is a graduation party for  COLLEGE STUDENTS",26,"plausible","Plausible",571.899999952322,1,9,100,"Passed_Immediate",34,"Female",63,0.5
14977583,"6979d0c48cac144bbcef94e9",59,"Tool","It is nice to greet an ENGINE",27,"implausible","Implausible",932.699999999982,1,9,100,"Passed_Immediate",34,"Female",63,0.5
14977583,"6979d0c48cac144bbcef94e9",42,"Human","All should be allowed to be who they want to be, including GRAPHIC DESIGNERS",28,"plausible","Plausible",690.399999999994,1,9,100,"Passed_Immediate",34,"Female",63,0.5
14977583,"6979d0c48cac144bbcef94e9",43,"AI","When successful, happiness is felt by the SMART DEVICE",29,"implausible","Implausible",1119.5999999523,1,9,100,"Passed_Immediate",34,"Female",63,0.5
14977583,"6979d0c48cac144bbcef94e9",63,"Human","Music is fun to listen to for SINGERS",30,"plausible","Plausible",1158.19999990464,1,9,100,"Passed_Immediate",34,"Female",63,0.5
14977583,"6979d0c48cac144bbcef94e9",56,"Tool","Literature is a popular subject to choose to study for DIRECTORIES",31,"implausible","Implausible",1459.09999990463,1,9,100,"Passed_Immediate",34,"Female",63,0.5
14977583,"6979d0c48cac144bbcef94e9",44,"Tool","When successful, happiness is felt by the TAPE MEASURE",32,"implausible","Implausible",970.399999904621,1,9,100,"Passed_Immediate",34,"Female",63,0.5
14977583,"6979d0c48cac144bbcef94e9",53,"Tool","Some people exploit FOOD PROCESSORS",33,"implausible","Implausible",1338.5999999523,1,9,100,"Passed_Immediate",34,"Female",63,0.5
14977583,"6979d0c48cac144bbcef94e9",23,"Tool","When we yell at them, we offend the MIRRORS",34,"implausible","Implausible",899.299999952316,1,9,100,"Passed_Immediate",34,"Female",63,0.5
14977583,"6979d0c48cac144bbcef94e9",51,"Human","Friends are important for the health of STUDENTS",35,"plausible","Plausible",1317.39999997616,1,9,100,"Passed_Immediate",34,"Female",63,0.5
14977583,"6979d0c48cac144bbcef94e9",18,"Human","She insulted the CASHIER",36,"plausible","Plausible",879.599999928469,1,9,100,"Passed_Immediate",34,"Female",63,0.5
14977583,"6979d0c48cac144bbcef94e9",22,"AI","When we yell at them, we offend the ROBOTS",37,"implausible","Implausible",987.799999904644,1,9,100,"Passed_Immediate",34,"Female",63,0.5
14977583,"6979d0c48cac144bbcef94e9",47,"Tool","We organized a birthday party for my RADIO",38,"implausible","Implausible",763.099999952305,1,9,100,"Passed_Immediate",34,"Female",63,0.5
14977583,"6979d0c48cac144bbcef94e9",64,"AI","Together, I sip wine with my CHATBOT",39,"implausible","Implausible",703.999999904627,1,9,100,"Passed_Immediate",34,"Female",63,0.5
14977583,"6979d0c48cac144bbcef94e9",7,"AI","Joe is looking to marry a nice BOT",40,"implausible","Implausible",659.799999976152,1,9,100,"Passed_Immediate",34,"Female",63,0.5
14977583,"6979d0c48cac144bbcef94e9",38,"Tool","After they finish learning, there is a graduation party for WASHING MACHINES",41,"implausible","Implausible",782.599999928469,1,9,100,"Passed_Immediate",34,"Female",63,0.5
14977583,"6979d0c48cac144bbcef94e9",65,"Tool","Together, I sip wine with my TOOLBOX",42,"implausible","Implausible",612.199999904638,1,9,100,"Passed_Immediate",34,"Female",63,0.5
14977583,"6979d0c48cac144bbcef94e9",15,"Human","We organized a birthday party for my AUNT",43,"plausible","Plausible",643.599999952305,1,9,100,"Passed_Immediate",34,"Female",63,0.5
14977583,"6979d0c48cac144bbcef94e9",40,"AI","All should be allowed to be who they want to be, including VIRTUAL ASSISTANTS",44,"implausible","Implausible",2822.59999999998,1,9,100,"Passed_Immediate",34,"Female",63,0.5
14977583,"6979d0c48cac144bbcef94e9",13,"AI","We organized a birthday party for my DRONE",45,"implausible","Implausible",1040.49999990466,1,9,100,"Passed_Immediate",34,"Female",63,0.5
14977583,"6979d0c48cac144bbcef94e9",27,"Human","When they get hungry, we feed the IT SPECIALISTS",46,"plausible","Plausible",800.700000000012,1,9,100,"Passed_Immediate",34,"Female",63,0.5
14977583,"6979d0c48cac144bbcef94e9",57,"Human","Literature is a popular subject to choose to study for PHILOSOPHERS",47,"plausible","Plausible",1408.89999990462,1,9,100,"Passed_Immediate",34,"Female",63,0.5
14977583,"6979d0c48cac144bbcef94e9",54,"Human","Some people exploit SOCIAL WORKERS",48,"plausible","Plausible",919.099999928498,1,9,100,"Passed_Immediate",34,"Female",63,0.5
14977583,"6979d0c48cac144bbcef94e9",41,"Tool","All should be allowed to be who they want to be, including ELECTRIC GUITARS",49,"implausible","Implausible",568.899999904621,1,9,100,"Passed_Immediate",34,"Female",63,0.5
14977583,"6979d0c48cac144bbcef94e9",37,"AI","After they finish learning, there is a graduation party for NEURAL NETWORKS",50,"implausible","Implausible",754.700000000012,1,9,100,"Passed_Immediate",34,"Female",63,0.5
14977583,"6979d0c48cac144bbcef94e9",25,"AI","When they get hungry, we feed the INTELLIGENT SYSTEMS",51,"implausible","Implausible",678.099999999977,1,9,100,"Passed_Immediate",34,"Female",63,0.5
14977583,"6979d0c48cac144bbcef94e9",19,"AI","Getting ready for the day is common for AUTOMATONS",52,"implausible","Implausible",860.399999976158,1,9,100,"Passed_Immediate",34,"Female",63,0.5
14977583,"6979d0c48cac144bbcef94e9",14,"Tool","We organized a birthday party for my DRILL",53,"implausible","Implausible",599.099999999977,1,9,100,"Passed_Immediate",34,"Female",63,0.5
14977583,"6979d0c48cac144bbcef94e9",32,"Tool","Curiosity is common in some  CALCULATORS",54,"implausible","Implausible",737.399999904621,1,9,100,"Passed_Immediate",34,"Female",63,0.5
14977583,"6979d0c48cac144bbcef94e9",11,"Tool","I am going to a funeral for my HAMMER",55,"implausible","Implausible",540.999999904656,1,9,100,"Passed_Immediate",34,"Female",63,0.5
14977583,"6979d0c48cac144bbcef94e9",6,"Human","Living wages are deserved by all BAKERS",56,"plausible","Plausible",916.099999928498,1,9,100,"Passed_Immediate",34,"Female",63,0.5
14977583,"6979d0c48cac144bbcef94e9",60,"Human","It is nice to greet an ARTIST",57,"plausible","Plausible",799.299999999988,1,9,100,"Passed_Immediate",34,"Female",63,0.5
14977583,"6979d0c48cac144bbcef94e9",46,"AI","We organized a birthday party for my AI",58,"implausible","Implausible",736.399999928486,1,9,100,"Passed_Immediate",34,"Female",63,0.5
14977583,"6979d0c48cac144bbcef94e9",3,"Human","The presidential candidate is an intelligent TEACHER",59,"plausible","Plausible",1869.19999995234,1,9,100,"Passed_Immediate",34,"Female",63,0.5
14977583,"6979d0c48cac144bbcef94e9",5,"Tool","Living wages are deserved by all TABLETS",60,"implausible","Implausible",861.499999928463,1,9,100,"Passed_Immediate",34,"Female",63,0.5
14977583,"6979d0c48cac144bbcef94e9",36,"Human","The man became an ACTOR",61,"plausible","Plausible",775.399999976158,1,9,100,"Passed_Immediate",34,"Female",63,0.5
14977583,"6979d0c48cac144bbcef94e9",16,"AI","She insulted the CYBORG",62,"implausible","Implausible",931.099999904633,1,9,100,"Passed_Immediate",34,"Female",63,0.5
14977583,"6979d0c48cac144bbcef94e9",48,"Human","We organized a birthday party for my COUSIN",63,"plausible","Plausible",934.699999904609,1,9,100,"Passed_Immediate",34,"Female",63,0.5
14977583,"6979d0c48cac144bbcef94e9",30,"Human","When not talked to, loneliness is felt by the POET",64,"plausible","Plausible",1017.29999990464,1,9,100,"Passed_Immediate",34,"Female",63,0.5
14977583,"6979d0c48cac144bbcef94e9",61,"AI","Music is fun to listen to for ANDROIDS",65,"implausible","Implausible",1097.69999995234,1,9,100,"Passed_Immediate",34,"Female",63,0.5
14977583,"6979d0c48cac144bbcef94e9",10,"AI","I am going to a funeral for my ROBOT",66,"implausible","Implausible",488.5,1,9,100,"Passed_Immediate",34,"Female",63,0.5
14977585,"6979d0c5adb77ccdee54cee0",30,"Human","When not talked to, loneliness is felt by the POET",1,"plausible","Plausible",3111.70000001192,1,9,100,"Passed_Immediate",48,"Male",97,0.75
14977585,"6979d0c5adb77ccdee54cee0",57,"Human","Literature is a popular subject to choose to study for PHILOSOPHERS",2,"plausible","Plausible",684.10000001192,1,9,100,"Passed_Immediate",48,"Male",97,0.75
14977585,"6979d0c5adb77ccdee54cee0",26,"Tool","When they get hungry, we feed the SOLDERING IRONS",3,"implausible","Implausible",1035.80000001192,1,9,100,"Passed_Immediate",48,"Male",97,0.75
14977585,"6979d0c5adb77ccdee54cee0",40,"AI","All should be allowed to be who they want to be, including VIRTUAL ASSISTANTS",4,"implausible","Implausible",2886.80000001788,1,9,100,"Passed_Immediate",48,"Male",97,0.75
14977585,"6979d0c5adb77ccdee54cee0",37,"AI","After they finish learning, there is a graduation party for NEURAL NETWORKS",5,"implausible","Implausible",905.40000000596,1,9,100,"Passed_Immediate",48,"Male",97,0.75
14977585,"6979d0c5adb77ccdee54cee0",8,"Tool","Joe is looking to marry a nice STOVE",6,"implausible","Implausible",764.000000005959,1,9,100,"Passed_Immediate",48,"Male",97,0.75
14977585,"6979d0c5adb77ccdee54cee0",3,"Human","The presidential candidate is an intelligent TEACHER",7,"plausible","Plausible",1144.3,1,9,100,"Passed_Immediate",48,"Male",97,0.75
14977585,"6979d0c5adb77ccdee54cee0",41,"Tool","All should be allowed to be who they want to be, including ELECTRIC GUITARS",8,"implausible","Implausible",1061.80000000595,1,9,100,"Passed_Immediate",48,"Male",97,0.75
14977585,"6979d0c5adb77ccdee54cee0",65,"Tool","Together, I sip wine with my TOOLBOX",9,"implausible","Implausible",1334.70000001192,1,9,100,"Passed_Immediate",48,"Male",97,0.75
14977585,"6979d0c5adb77ccdee54cee0",28,"AI","When not talked to, loneliness is felt by the AI",10,"implausible","Implausible",1118.80000001789,1,9,100,"Passed_Immediate",48,"Male",97,0.75
14977585,"6979d0c5adb77ccdee54cee0",1,"AI","The presidential candidate is an intelligent PROGRAM",11,"implausible","Implausible",820.299999994037,1,9,100,"Passed_Immediate",48,"Male",97,0.75
14977585,"6979d0c5adb77ccdee54cee0",44,"Tool","When successful, happiness is felt by the TAPE MEASURE",12,"implausible","Implausible",569.799999994037,1,9,100,"Passed_Immediate",48,"Male",97,0.75
14977585,"6979d0c5adb77ccdee54cee0",35,"Tool","The man became a  BOTTLE",13,"implausible","Implausible",729.000000005966,1,9,100,"Passed_Immediate",48,"Male",97,0.75
14977585,"6979d0c5adb77ccdee54cee0",14,"Tool","We organized a birthday party for my DRILL",14,"implausible","Implausible",1783.90000000596,1,9,100,"Passed_Immediate",48,"Male",97,0.75
14977585,"6979d0c5adb77ccdee54cee0",10,"AI","I am going to a funeral for my ROBOT",15,"implausible","Implausible",1398.30000001192,1,9,100,"Passed_Immediate",48,"Male",97,0.75
14977585,"6979d0c5adb77ccdee54cee0",17,"Tool","She insulted the SCOOTER",16,"implausible","Implausible",1501.60000001788,1,9,100,"Passed_Immediate",48,"Male",97,0.75
14977585,"6979d0c5adb77ccdee54cee0",23,"Tool","When we yell at them, we offend the MIRRORS",17,"implausible","Implausible",864.700000017881,1,9,100,"Passed_Immediate",48,"Male",97,0.75
14977585,"6979d0c5adb77ccdee54cee0",24,"Human","When we yell at them, we offend the DOCTORS",18,"plausible","Plausible",1012.30000001789,1,9,100,"Passed_Immediate",48,"Male",97,0.75
14977585,"6979d0c5adb77ccdee54cee0",21,"Human","Getting ready for the day is common for ZOOLOGISTS",19,"plausible","Plausible",965.699999994045,1,9,100,"Passed_Immediate",48,"Male",97,0.75
14977585,"6979d0c5adb77ccdee54cee0",42,"Human","All should be allowed to be who they want to be, including GRAPHIC DESIGNERS",20,"plausible","Plausible",906.600000011909,1,9,100,"Passed_Immediate",48,"Male",97,0.75
14977585,"6979d0c5adb77ccdee54cee0",36,"Human","The man became an ACTOR",21,"plausible","Plausible",972.700000011915,1,9,100,"Passed_Immediate",48,"Male",97,0.75
14977585,"6979d0c5adb77ccdee54cee0",60,"Human","It is nice to greet an ARTIST",22,"plausible","Plausible",671.700000005949,1,9,100,"Passed_Immediate",48,"Male",97,0.75
14977585,"6979d0c5adb77ccdee54cee0",22,"AI","When we yell at them, we offend the ROBOTS",23,"implausible","Implausible",1102.70000001192,1,9,100,"Passed_Immediate",48,"Male",97,0.75
14977585,"6979d0c5adb77ccdee54cee0",5,"Tool","Living wages are deserved by all TABLETS",24,"implausible","Implausible",962.900000011927,1,9,100,"Passed_Immediate",48,"Male",97,0.75
14977585,"6979d0c5adb77ccdee54cee0",46,"AI","We organized a birthday party for my AI",25,"implausible","Implausible",949.500000011933,1,9,100,"Passed_Immediate",48,"Male",97,0.75
14977585,"6979d0c5adb77ccdee54cee0",58,"AI","It is nice to greet an AI",26,"implausible","Implausible",1237.30000001192,1,9,100,"Passed_Immediate",48,"Male",97,0.75
14977585,"6979d0c5adb77ccdee54cee0",62,"Tool","Music is fun to listen to for LAPTOPS",27,"implausible","Implausible",859.899999994028,1,9,100,"Passed_Immediate",48,"Male",97,0.75
14977585,"6979d0c5adb77ccdee54cee0",50,"Tool","Friends are important for the health of TABLES",28,"implausible","Implausible",1197.50000001787,1,9,100,"Passed_Immediate",48,"Male",97,0.75
14977585,"6979d0c5adb77ccdee54cee0",56,"Tool","Literature is a popular subject to choose to study for DIRECTORIES",29,"implausible","Implausible",1680.10000000001,1,9,100,"Passed_Immediate",48,"Male",97,0.75
14977585,"6979d0c5adb77ccdee54cee0",48,"Human","We organized a birthday party for my COUSIN",30,"plausible","Plausible",702.600000005972,1,9,100,"Passed_Immediate",48,"Male",97,0.75
14977585,"6979d0c5adb77ccdee54cee0",61,"AI","Music is fun to listen to for ANDROIDS",31,"implausible","Implausible",1217.90000000596,1,9,100,"Passed_Immediate",48,"Male",97,0.75
14977585,"6979d0c5adb77ccdee54cee0",15,"Human","We organized a birthday party for my AUNT",32,"plausible","Plausible",690.300000011921,1,9,100,"Passed_Immediate",48,"Male",97,0.75
14977585,"6979d0c5adb77ccdee54cee0",66,"Human","Together, I sip wine with my NEPHEW",33,"plausible","Plausible",1212.09999999404,1,9,100,"Passed_Immediate",48,"Male",97,0.75
14977585,"6979d0c5adb77ccdee54cee0",59,"Tool","It is nice to greet an ENGINE",34,"implausible","Implausible",1144.10000001191,1,9,100,"Passed_Immediate",48,"Male",97,0.75
14977585,"6979d0c5adb77ccdee54cee0",19,"AI","Getting ready for the day is common for AUTOMATONS",35,"implausible","Implausible",927.100000005972,1,9,100,"Passed_Immediate",48,"Male",97,0.75
14977585,"6979d0c5adb77ccdee54cee0",39,"Human","After they finish learning, there is a graduation party for  COLLEGE STUDENTS",36,"plausible","Plausible",1085.40000000596,1,9,100,"Passed_Immediate",48,"Male",97,0.75
14977585,"6979d0c5adb77ccdee54cee0",16,"AI","She insulted the CYBORG",37,"implausible","Implausible",1011.70000001788,1,9,100,"Passed_Immediate",48,"Male",97,0.75
14977585,"6979d0c5adb77ccdee54cee0",38,"Tool","After they finish learning, there is a graduation party for WASHING MACHINES",38,"implausible","Implausible",596.399999994028,1,9,100,"Passed_Immediate",48,"Male",97,0.75
14977585,"6979d0c5adb77ccdee54cee0",32,"Tool","Curiosity is common in some  CALCULATORS",39,"implausible","Implausible",3660.10000000001,1,9,100,"Passed_Immediate",48,"Male",97,0.75
14977585,"6979d0c5adb77ccdee54cee0",53,"Tool","Some people exploit FOOD PROCESSORS",40,"implausible","Implausible",1053.30000001789,1,9,100,"Passed_Immediate",48,"Male",97,0.75
14977585,"6979d0c5adb77ccdee54cee0",4,"AI","Living wages are deserved by all ANDROIDS",41,"implausible","Implausible",2109.39999999999,1,9,100,"Passed_Immediate",48,"Male",97,0.75
14977585,"6979d0c5adb77ccdee54cee0",63,"Human","Music is fun to listen to for SINGERS",42,"plausible","Plausible",1594.00000001193,1,9,100,"Passed_Immediate",48,"Male",97,0.75
14977585,"6979d0c5adb77ccdee54cee0",51,"Human","Friends are important for the health of STUDENTS",43,"plausible","Plausible",1120.90000000596,1,9,100,"Passed_Immediate",48,"Male",97,0.75
14977585,"6979d0c5adb77ccdee54cee0",45,"Human","When successful, happiness is felt by the BOOK EDITOR",44,"plausible","Plausible",2075.20000001788,1,9,100,"Passed_Immediate",48,"Male",97,0.75
14977585,"6979d0c5adb77ccdee54cee0",9,"Human","Joe is looking to marry a nice MAID",45,"plausible","Plausible",1098.90000000002,1,9,100,"Passed_Immediate",48,"Male",97,0.75
14977585,"6979d0c5adb77ccdee54cee0",7,"AI","Joe is looking to marry a nice BOT",46,"implausible","Implausible",590.300000017858,1,9,100,"Passed_Immediate",48,"Male",97,0.75
14977585,"6979d0c5adb77ccdee54cee0",33,"Human","Curiosity is common in some  LIBRARIANS",47,"plausible","Plausible",869.099999999977,1,9,100,"Passed_Immediate",48,"Male",97,0.75
14977585,"6979d0c5adb77ccdee54cee0",34,"AI","The man became a  ROBOT",48,"implausible","Implausible",1140.20000001788,1,9,100,"Passed_Immediate",48,"Male",97,0.75
14977585,"6979d0c5adb77ccdee54cee0",12,"Human","I am going to a funeral for my UNCLE",49,"plausible","Plausible",717.800000005984,1,9,100,"Passed_Immediate",48,"Male",97,0.75
14977585,"6979d0c5adb77ccdee54cee0",29,"Tool","When not talked to, loneliness is felt by the LETTER",50,"implausible","Implausible",852.700000011944,1,9,100,"Passed_Immediate",48,"Male",97,0.75
14977585,"6979d0c5adb77ccdee54cee0",2,"Tool","The presidential candidate is an intelligent PICTURE",51,"implausible","Implausible",3053.50000001193,1,9,100,"Passed_Immediate",48,"Male",97,0.75
14977585,"6979d0c5adb77ccdee54cee0",27,"Human","When they get hungry, we feed the IT SPECIALISTS",52,"plausible","Plausible",1639.10000001191,1,9,100,"Passed_Immediate",48,"Male",97,0.75
14977585,"6979d0c5adb77ccdee54cee0",13,"AI","We organized a birthday party for my DRONE",53,"implausible","Implausible",1019.19999999402,1,9,100,"Passed_Immediate",48,"Male",97,0.75
14977585,"6979d0c5adb77ccdee54cee0",43,"AI","When successful, happiness is felt by the SMART DEVICE",54,"implausible","Implausible",813.90000000596,1,9,100,"Passed_Immediate",48,"Male",97,0.75
14977585,"6979d0c5adb77ccdee54cee0",11,"Tool","I am going to a funeral for my HAMMER",55,"implausible","Implausible",1008.30000000598,1,9,100,"Passed_Immediate",48,"Male",97,0.75
14977585,"6979d0c5adb77ccdee54cee0",55,"AI","Literature is a popular subject to choose to study for ALGORITHMS",56,"implausible","Implausible",662.499999994063,1,9,100,"Passed_Immediate",48,"Male",97,0.75
14977585,"6979d0c5adb77ccdee54cee0",31,"AI","Curiosity is common in some  ALGORITHMS",57,"implausible","Implausible",3698.4000000119,1,9,100,"Passed_Immediate",48,"Male",97,0.75
14977585,"6979d0c5adb77ccdee54cee0",18,"Human","She insulted the CASHIER",58,"plausible","Plausible",1579.30000000598,1,9,100,"Passed_Immediate",48,"Male",97,0.75
14977585,"6979d0c5adb77ccdee54cee0",20,"Tool","Getting ready for the day is common for SYNTHESIZERS",59,"implausible","Implausible",828.400000017893,1,9,100,"Passed_Immediate",48,"Male",97,0.75
14977585,"6979d0c5adb77ccdee54cee0",52,"AI","Some people exploit  GOOGLE ASSISTANTS",60,"implausible","Implausible",2693.70000000001,1,9,100,"Passed_Immediate",48,"Male",97,0.75
14977585,"6979d0c5adb77ccdee54cee0",6,"Human","Living wages are deserved by all BAKERS",61,"plausible","Plausible",1334.30000000598,1,9,100,"Passed_Immediate",48,"Male",97,0.75
14977585,"6979d0c5adb77ccdee54cee0",25,"AI","When they get hungry, we feed the INTELLIGENT SYSTEMS",62,"implausible","Implausible",790.400000011898,1,9,100,"Passed_Immediate",48,"Male",97,0.75
14977585,"6979d0c5adb77ccdee54cee0",49,"AI","Friends are important for the health of PROGRAMS",63,"implausible","Implausible",606.300000017858,1,9,100,"Passed_Immediate",48,"Male",97,0.75
14977585,"6979d0c5adb77ccdee54cee0",54,"Human","Some people exploit SOCIAL WORKERS",64,"plausible","Plausible",1041.40000000596,1,9,100,"Passed_Immediate",48,"Male",97,0.75
14977585,"6979d0c5adb77ccdee54cee0",47,"Tool","We organized a birthday party for my RADIO",65,"implausible","Implausible",725.90000000596,1,9,100,"Passed_Immediate",48,"Male",97,0.75
14977585,"6979d0c5adb77ccdee54cee0",64,"AI","Together, I sip wine with my CHATBOT",66,"implausible","Implausible",1043.90000000002,1,9,100,"Passed_Immediate",48,"Male",97,0.75
14977586,"6979d0c74282d4614170e6cb",33,"Human","Curiosity is common in some  LIBRARIANS",1,"plausible","Plausible",1938.20000000447,1,8,88.8888888888889,"Failed_Both",28,"Male",100,0.625
14977586,"6979d0c74282d4614170e6cb",39,"Human","After they finish learning, there is a graduation party for  COLLEGE STUDENTS",2,"plausible","Plausible",9331.20000000149,1,8,88.8888888888889,"Failed_Both",28,"Male",100,0.625
14977586,"6979d0c74282d4614170e6cb",6,"Human","Living wages are deserved by all BAKERS",3,"implausible","Plausible",5294.1,0,8,88.8888888888889,"Failed_Both",28,"Male",100,0.625
14977586,"6979d0c74282d4614170e6cb",56,"Tool","Literature is a popular subject to choose to study for DIRECTORIES",4,"implausible","Implausible",2730.30000000447,1,8,88.8888888888889,"Failed_Both",28,"Male",100,0.625
14977586,"6979d0c74282d4614170e6cb",47,"Tool","We organized a birthday party for my RADIO",5,"implausible","Implausible",1780.50000000149,1,8,88.8888888888889,"Failed_Both",28,"Male",100,0.625
14977586,"6979d0c74282d4614170e6cb",40,"AI","All should be allowed to be who they want to be, including VIRTUAL ASSISTANTS",6,"implausible","Implausible",1004.50000000298,1,8,88.8888888888889,"Failed_Both",28,"Male",100,0.625
14977586,"6979d0c74282d4614170e6cb",12,"Human","I am going to a funeral for my UNCLE",7,"plausible","Plausible",1730,1,8,88.8888888888889,"Failed_Both",28,"Male",100,0.625
14977586,"6979d0c74282d4614170e6cb",59,"Tool","It is nice to greet an ENGINE",8,"implausible","Implausible",970.80000000447,1,8,88.8888888888889,"Failed_Both",28,"Male",100,0.625
14977586,"6979d0c74282d4614170e6cb",28,"AI","When not talked to, loneliness is felt by the AI",9,"plausible","Implausible",2358.90000000149,0,8,88.8888888888889,"Failed_Both",28,"Male",100,0.625
14977586,"6979d0c74282d4614170e6cb",20,"Tool","Getting ready for the day is common for SYNTHESIZERS",10,"implausible","Implausible",1519.80000000447,1,8,88.8888888888889,"Failed_Both",28,"Male",100,0.625
14977586,"6979d0c74282d4614170e6cb",43,"AI","When successful, happiness is felt by the SMART DEVICE",11,"implausible","Implausible",3202.00000000447,1,8,88.8888888888889,"Failed_Both",28,"Male",100,0.625
14977586,"6979d0c74282d4614170e6cb",44,"Tool","When successful, happiness is felt by the TAPE MEASURE",12,"implausible","Implausible",805.600000004473,1,8,88.8888888888889,"Failed_Both",28,"Male",100,0.625
14977586,"6979d0c74282d4614170e6cb",8,"Tool","Joe is looking to marry a nice STOVE",13,"implausible","Implausible",2637.7000000015,1,8,88.8888888888889,"Failed_Both",28,"Male",100,0.625
14977586,"6979d0c74282d4614170e6cb",55,"AI","Literature is a popular subject to choose to study for ALGORITHMS",14,"plausible","Implausible",6546.3,0,8,88.8888888888889,"Failed_Both",28,"Male",100,0.625
14977586,"6979d0c74282d4614170e6cb",11,"Tool","I am going to a funeral for my HAMMER",15,"implausible","Implausible",1129.3,1,8,88.8888888888889,"Failed_Both",28,"Male",100,0.625
14977586,"6979d0c74282d4614170e6cb",32,"Tool","Curiosity is common in some  CALCULATORS",16,"implausible","Implausible",1316.60000000001,1,8,88.8888888888889,"Failed_Both",28,"Male",100,0.625
14977586,"6979d0c74282d4614170e6cb",57,"Human","Literature is a popular subject to choose to study for PHILOSOPHERS",17,"plausible","Plausible",1450.79999999999,1,8,88.8888888888889,"Failed_Both",28,"Male",100,0.625
14977586,"6979d0c74282d4614170e6cb",5,"Tool","Living wages are deserved by all TABLETS",18,"implausible","Implausible",999.799999999988,1,8,88.8888888888889,"Failed_Both",28,"Male",100,0.625
14977586,"6979d0c74282d4614170e6cb",58,"AI","It is nice to greet an AI",19,"plausible","Implausible",6505.50000000597,0,8,88.8888888888889,"Failed_Both",28,"Male",100,0.625
14977586,"6979d0c74282d4614170e6cb",15,"Human","We organized a birthday party for my AUNT",20,"plausible","Plausible",670.600000004459,1,8,88.8888888888889,"Failed_Both",28,"Male",100,0.625
14977586,"6979d0c74282d4614170e6cb",26,"Tool","When they get hungry, we feed the SOLDERING IRONS",21,"implausible","Implausible",697.600000000006,1,8,88.8888888888889,"Failed_Both",28,"Male",100,0.625
14977586,"6979d0c74282d4614170e6cb",37,"AI","After they finish learning, there is a graduation party for NEURAL NETWORKS",22,"implausible","Implausible",2312.30000000447,1,8,88.8888888888889,"Failed_Both",28,"Male",100,0.625
14977586,"6979d0c74282d4614170e6cb",62,"Tool","Music is fun to listen to for LAPTOPS",23,"implausible","Implausible",7148.80000000299,1,8,88.8888888888889,"Failed_Both",28,"Male",100,0.625
14977586,"6979d0c74282d4614170e6cb",13,"AI","We organized a birthday party for my DRONE",24,"implausible","Implausible",1342.80000000299,1,8,88.8888888888889,"Failed_Both",28,"Male",100,0.625
14977586,"6979d0c74282d4614170e6cb",38,"Tool","After they finish learning, there is a graduation party for WASHING MACHINES",25,"implausible","Implausible",1181.00000000448,1,8,88.8888888888889,"Failed_Both",28,"Male",100,0.625
14977586,"6979d0c74282d4614170e6cb",48,"Human","We organized a birthday party for my COUSIN",26,"plausible","Plausible",869.300000002986,1,8,88.8888888888889,"Failed_Both",28,"Male",100,0.625
14977586,"6979d0c74282d4614170e6cb",16,"AI","She insulted the CYBORG",27,"plausible","Implausible",2063.10000000149,0,8,88.8888888888889,"Failed_Both",28,"Male",100,0.625
14977586,"6979d0c74282d4614170e6cb",31,"AI","Curiosity is common in some  ALGORITHMS",28,"implausible","Implausible",2582.7000000015,1,8,88.8888888888889,"Failed_Both",28,"Male",100,0.625
14977586,"6979d0c74282d4614170e6cb",7,"AI","Joe is looking to marry a nice BOT",29,"implausible","Implausible",1550.30000000002,1,8,88.8888888888889,"Failed_Both",28,"Male",100,0.625
14977586,"6979d0c74282d4614170e6cb",27,"Human","When they get hungry, we feed the IT SPECIALISTS",30,"plausible","Plausible",4560.90000000148,1,8,88.8888888888889,"Failed_Both",28,"Male",100,0.625
14977586,"6979d0c74282d4614170e6cb",19,"AI","Getting ready for the day is common for AUTOMATONS",31,"implausible","Implausible",1362.60000000297,1,8,88.8888888888889,"Failed_Both",28,"Male",100,0.625
14977586,"6979d0c74282d4614170e6cb",63,"Human","Music is fun to listen to for SINGERS",32,"plausible","Plausible",1285.60000000149,1,8,88.8888888888889,"Failed_Both",28,"Male",100,0.625
14977586,"6979d0c74282d4614170e6cb",10,"AI","I am going to a funeral for my ROBOT",33,"implausible","Implausible",2415.79999999999,1,8,88.8888888888889,"Failed_Both",28,"Male",100,0.625
14977586,"6979d0c74282d4614170e6cb",42,"Human","All should be allowed to be who they want to be, including GRAPHIC DESIGNERS",34,"plausible","Plausible",999.300000005955,1,8,88.8888888888889,"Failed_Both",28,"Male",100,0.625
14977586,"6979d0c74282d4614170e6cb",54,"Human","Some people exploit SOCIAL WORKERS",35,"plausible","Plausible",774.100000005972,1,8,88.8888888888889,"Failed_Both",28,"Male",100,0.625
14977586,"6979d0c74282d4614170e6cb",25,"AI","When they get hungry, we feed the INTELLIGENT SYSTEMS",36,"implausible","Implausible",1251.60000000597,1,8,88.8888888888889,"Failed_Both",28,"Male",100,0.625
14977586,"6979d0c74282d4614170e6cb",21,"Human","Getting ready for the day is common for ZOOLOGISTS",37,"implausible","Plausible",4744.50000000297,0,8,88.8888888888889,"Failed_Both",28,"Male",100,0.625
14977586,"6979d0c74282d4614170e6cb",30,"Human","When not talked to, loneliness is felt by the POET",38,"plausible","Plausible",1285.20000000147,1,8,88.8888888888889,"Failed_Both",28,"Male",100,0.625
14977586,"6979d0c74282d4614170e6cb",52,"AI","Some people exploit  GOOGLE ASSISTANTS",39,"implausible","Implausible",3540,1,8,88.8888888888889,"Failed_Both",28,"Male",100,0.625
14977586,"6979d0c74282d4614170e6cb",36,"Human","The man became an ACTOR",40,"plausible","Plausible",1767.60000000149,1,8,88.8888888888889,"Failed_Both",28,"Male",100,0.625
14977586,"6979d0c74282d4614170e6cb",61,"AI","Music is fun to listen to for ANDROIDS",41,"implausible","Implausible",1034.20000000449,1,8,88.8888888888889,"Failed_Both",28,"Male",100,0.625
14977586,"6979d0c74282d4614170e6cb",66,"Human","Together, I sip wine with my NEPHEW",42,"plausible","Plausible",714.099999999977,1,8,88.8888888888889,"Failed_Both",28,"Male",100,0.625
14977586,"6979d0c74282d4614170e6cb",51,"Human","Friends are important for the health of STUDENTS",43,"plausible","Plausible",4010.00000000151,1,8,88.8888888888889,"Failed_Both",28,"Male",100,0.625
14977586,"6979d0c74282d4614170e6cb",49,"AI","Friends are important for the health of PROGRAMS",44,"implausible","Implausible",2571.70000000298,1,8,88.8888888888889,"Failed_Both",28,"Male",100,0.625
14977586,"6979d0c74282d4614170e6cb",24,"Human","When we yell at them, we offend the DOCTORS",45,"plausible","Plausible",3415.5,1,8,88.8888888888889,"Failed_Both",28,"Male",100,0.625
14977586,"6979d0c74282d4614170e6cb",14,"Tool","We organized a birthday party for my DRILL",46,"implausible","Implausible",904.60000000149,1,8,88.8888888888889,"Failed_Both",28,"Male",100,0.625
14977586,"6979d0c74282d4614170e6cb",45,"Human","When successful, happiness is felt by the BOOK EDITOR",47,"implausible","Plausible",3325.00000000594,0,8,88.8888888888889,"Failed_Both",28,"Male",100,0.625
14977586,"6979d0c74282d4614170e6cb",29,"Tool","When not talked to, loneliness is felt by the LETTER",48,"implausible","Implausible",887.70000000298,1,8,88.8888888888889,"Failed_Both",28,"Male",100,0.625
14977586,"6979d0c74282d4614170e6cb",22,"AI","When we yell at them, we offend the ROBOTS",49,"plausible","Implausible",2050.29999999999,0,8,88.8888888888889,"Failed_Both",28,"Male",100,0.625
14977586,"6979d0c74282d4614170e6cb",46,"AI","We organized a birthday party for my AI",50,"implausible","Implausible",1642.40000000299,1,8,88.8888888888889,"Failed_Both",28,"Male",100,0.625
14977586,"6979d0c74282d4614170e6cb",64,"AI","Together, I sip wine with my CHATBOT",51,"implausible","Implausible",1673.50000000297,1,8,88.8888888888889,"Failed_Both",28,"Male",100,0.625
14977586,"6979d0c74282d4614170e6cb",9,"Human","Joe is looking to marry a nice MAID",52,"plausible","Plausible",1240.3000000015,1,8,88.8888888888889,"Failed_Both",28,"Male",100,0.625
14977586,"6979d0c74282d4614170e6cb",41,"Tool","All should be allowed to be who they want to be, including ELECTRIC GUITARS",53,"implausible","Implausible",704.90000000596,1,8,88.8888888888889,"Failed_Both",28,"Male",100,0.625
14977586,"6979d0c74282d4614170e6cb",17,"Tool","She insulted the SCOOTER",54,"implausible","Implausible",1416.20000000147,1,8,88.8888888888889,"Failed_Both",28,"Male",100,0.625
14977586,"6979d0c74282d4614170e6cb",65,"Tool","Together, I sip wine with my TOOLBOX",55,"implausible","Implausible",114437.000000004,1,8,88.8888888888889,"Failed_Both",28,"Male",100,0.625
14977586,"6979d0c74282d4614170e6cb",35,"Tool","The man became a  BOTTLE",56,"implausible","Implausible",19024.0000000059,1,8,88.8888888888889,"Failed_Both",28,"Male",100,0.625
14977586,"6979d0c74282d4614170e6cb",4,"AI","Living wages are deserved by all ANDROIDS",57,"implausible","Implausible",16488.3,1,8,88.8888888888889,"Failed_Both",28,"Male",100,0.625
14977586,"6979d0c74282d4614170e6cb",50,"Tool","Friends are important for the health of TABLES",58,"implausible","Implausible",45163.3,1,8,88.8888888888889,"Failed_Both",28,"Male",100,0.625
14977586,"6979d0c74282d4614170e6cb",60,"Human","It is nice to greet an ARTIST",59,"plausible","Plausible",61255.200000003,1,8,88.8888888888889,"Failed_Both",28,"Male",100,0.625
14977586,"6979d0c74282d4614170e6cb",2,"Tool","The presidential candidate is an intelligent PICTURE",60,"implausible","Implausible",51050.300000006,1,8,88.8888888888889,"Failed_Both",28,"Male",100,0.625
14977586,"6979d0c74282d4614170e6cb",18,"Human","She insulted the CASHIER",61,"plausible","Plausible",12762.0000000044,1,8,88.8888888888889,"Failed_Both",28,"Male",100,0.625
14977586,"6979d0c74282d4614170e6cb",1,"AI","The presidential candidate is an intelligent PROGRAM",62,"implausible","Implausible",5297.40000000002,1,8,88.8888888888889,"Failed_Both",28,"Male",100,0.625
14977586,"6979d0c74282d4614170e6cb",3,"Human","The presidential candidate is an intelligent TEACHER",63,"plausible","Plausible",1840.80000000144,1,8,88.8888888888889,"Failed_Both",28,"Male",100,0.625
14977586,"6979d0c74282d4614170e6cb",23,"Tool","When we yell at them, we offend the MIRRORS",64,"implausible","Implausible",16175.1,1,8,88.8888888888889,"Failed_Both",28,"Male",100,0.625
14977586,"6979d0c74282d4614170e6cb",34,"AI","The man became a  ROBOT",65,"implausible","Implausible",2899.99999999988,1,8,88.8888888888889,"Failed_Both",28,"Male",100,0.625
14977586,"6979d0c74282d4614170e6cb",53,"Tool","Some people exploit FOOD PROCESSORS",66,"implausible","Implausible",1589.20000000298,1,8,88.8888888888889,"Failed_Both",28,"Male",100,0.625
14977587,"6979d0b3ccb73b968dd16580",46,"AI","We organized a birthday party for my AI",1,"implausible","Implausible",1845.89999990463,1,9,100,"Passed_Immediate",31,"Male",70,0.625
14977587,"6979d0b3ccb73b968dd16580",63,"Human","Music is fun to listen to for SINGERS",2,"plausible","Plausible",1645.00000019073,1,9,100,"Passed_Immediate",31,"Male",70,0.625
14977587,"6979d0b3ccb73b968dd16580",39,"Human","After they finish learning, there is a graduation party for  COLLEGE STUDENTS",3,"plausible","Plausible",1951,1,9,100,"Passed_Immediate",31,"Male",70,0.625
14977587,"6979d0b3ccb73b968dd16580",16,"AI","She insulted the CYBORG",4,"plausible","Implausible",2349.00000019073,0,9,100,"Passed_Immediate",31,"Male",70,0.625
14977587,"6979d0b3ccb73b968dd16580",33,"Human","Curiosity is common in some  LIBRARIANS",5,"plausible","Plausible",1832.39999990464,1,9,100,"Passed_Immediate",31,"Male",70,0.625
14977587,"6979d0b3ccb73b968dd16580",48,"Human","We organized a birthday party for my COUSIN",6,"plausible","Plausible",994.800000190735,1,9,100,"Passed_Immediate",31,"Male",70,0.625
14977587,"6979d0b3ccb73b968dd16580",40,"AI","All should be allowed to be who they want to be, including VIRTUAL ASSISTANTS",7,"implausible","Implausible",883.599999999991,1,9,100,"Passed_Immediate",31,"Male",70,0.625
14977587,"6979d0b3ccb73b968dd16580",55,"AI","Literature is a popular subject to choose to study for ALGORITHMS",8,"implausible","Implausible",983.799999999988,1,9,100,"Passed_Immediate",31,"Male",70,0.625
14977587,"6979d0b3ccb73b968dd16580",4,"AI","Living wages are deserved by all ANDROIDS",9,"implausible","Implausible",1374.10000009536,1,9,100,"Passed_Immediate",31,"Male",70,0.625
14977587,"6979d0b3ccb73b968dd16580",10,"AI","I am going to a funeral for my ROBOT",10,"implausible","Implausible",1349.10000000001,1,9,100,"Passed_Immediate",31,"Male",70,0.625
14977587,"6979d0b3ccb73b968dd16580",24,"Human","When we yell at them, we offend the DOCTORS",11,"plausible","Plausible",790.600000095365,1,9,100,"Passed_Immediate",31,"Male",70,0.625
14977587,"6979d0b3ccb73b968dd16580",59,"Tool","It is nice to greet an ENGINE",12,"implausible","Implausible",1018.10000009536,1,9,100,"Passed_Immediate",31,"Male",70,0.625
14977587,"6979d0b3ccb73b968dd16580",19,"AI","Getting ready for the day is common for AUTOMATONS",13,"implausible","Implausible",1579.60000019074,1,9,100,"Passed_Immediate",31,"Male",70,0.625
14977587,"6979d0b3ccb73b968dd16580",38,"Tool","After they finish learning, there is a graduation party for WASHING MACHINES",14,"implausible","Implausible",616.400000000009,1,9,100,"Passed_Immediate",31,"Male",70,0.625
14977587,"6979d0b3ccb73b968dd16580",5,"Tool","Living wages are deserved by all TABLETS",15,"implausible","Implausible",1657.49999980927,1,9,100,"Passed_Immediate",31,"Male",70,0.625
14977587,"6979d0b3ccb73b968dd16580",6,"Human","Living wages are deserved by all BAKERS",16,"plausible","Plausible",2368.09999980926,1,9,100,"Passed_Immediate",31,"Male",70,0.625
14977587,"6979d0b3ccb73b968dd16580",51,"Human","Friends are important for the health of STUDENTS",17,"plausible","Plausible",2382.70000009536,1,9,100,"Passed_Immediate",31,"Male",70,0.625
14977587,"6979d0b3ccb73b968dd16580",65,"Tool","Together, I sip wine with my TOOLBOX",18,"implausible","Implausible",3382.79999990464,1,9,100,"Passed_Immediate",31,"Male",70,0.625
14977587,"6979d0b3ccb73b968dd16580",61,"AI","Music is fun to listen to for ANDROIDS",19,"implausible","Implausible",728.099999809259,1,9,100,"Passed_Immediate",31,"Male",70,0.625
14977587,"6979d0b3ccb73b968dd16580",28,"AI","When not talked to, loneliness is felt by the AI",20,"implausible","Implausible",916.800000190735,1,9,100,"Passed_Immediate",31,"Male",70,0.625
14977587,"6979d0b3ccb73b968dd16580",9,"Human","Joe is looking to marry a nice MAID",21,"plausible","Plausible",3495.70000000001,1,9,100,"Passed_Immediate",31,"Male",70,0.625
14977587,"6979d0b3ccb73b968dd16580",56,"Tool","Literature is a popular subject to choose to study for DIRECTORIES",22,"implausible","Implausible",5677.20000009536,1,9,100,"Passed_Immediate",31,"Male",70,0.625
14977587,"6979d0b3ccb73b968dd16580",35,"Tool","The man became a  BOTTLE",23,"implausible","Implausible",1652.60000000001,1,9,100,"Passed_Immediate",31,"Male",70,0.625
14977587,"6979d0b3ccb73b968dd16580",34,"AI","The man became a  ROBOT",24,"implausible","Implausible",836.400000190741,1,9,100,"Passed_Immediate",31,"Male",70,0.625
14977587,"6979d0b3ccb73b968dd16580",47,"Tool","We organized a birthday party for my RADIO",25,"implausible","Implausible",1875.20000009536,1,9,100,"Passed_Immediate",31,"Male",70,0.625
14977587,"6979d0b3ccb73b968dd16580",50,"Tool","Friends are important for the health of TABLES",26,"implausible","Implausible",898.300000190735,1,9,100,"Passed_Immediate",31,"Male",70,0.625
14977587,"6979d0b3ccb73b968dd16580",7,"AI","Joe is looking to marry a nice BOT",27,"implausible","Implausible",1425.10000000001,1,9,100,"Passed_Immediate",31,"Male",70,0.625
14977587,"6979d0b3ccb73b968dd16580",36,"Human","The man became an ACTOR",28,"plausible","Plausible",1474.09999980926,1,9,100,"Passed_Immediate",31,"Male",70,0.625
14977587,"6979d0b3ccb73b968dd16580",58,"AI","It is nice to greet an AI",29,"implausible","Implausible",1052.39999990462,1,9,100,"Passed_Immediate",31,"Male",70,0.625
14977587,"6979d0b3ccb73b968dd16580",45,"Human","When successful, happiness is felt by the BOOK EDITOR",30,"implausible","Plausible",1083.29999999999,0,9,100,"Passed_Immediate",31,"Male",70,0.625
14977587,"6979d0b3ccb73b968dd16580",66,"Human","Together, I sip wine with my NEPHEW",31,"plausible","Plausible",694.5,1,9,100,"Passed_Immediate",31,"Male",70,0.625
14977587,"6979d0b3ccb73b968dd16580",30,"Human","When not talked to, loneliness is felt by the POET",32,"plausible","Plausible",1704.70000009536,1,9,100,"Passed_Immediate",31,"Male",70,0.625
14977587,"6979d0b3ccb73b968dd16580",20,"Tool","Getting ready for the day is common for SYNTHESIZERS",33,"implausible","Implausible",853.099999809259,1,9,100,"Passed_Immediate",31,"Male",70,0.625
14977587,"6979d0b3ccb73b968dd16580",11,"Tool","I am going to a funeral for my HAMMER",34,"implausible","Implausible",695.100000095379,1,9,100,"Passed_Immediate",31,"Male",70,0.625
14977587,"6979d0b3ccb73b968dd16580",13,"AI","We organized a birthday party for my DRONE",35,"implausible","Implausible",828.5,1,9,100,"Passed_Immediate",31,"Male",70,0.625
14977587,"6979d0b3ccb73b968dd16580",1,"AI","The presidential candidate is an intelligent PROGRAM",36,"implausible","Implausible",1153.59999990463,1,9,100,"Passed_Immediate",31,"Male",70,0.625
14977587,"6979d0b3ccb73b968dd16580",31,"AI","Curiosity is common in some  ALGORITHMS",37,"implausible","Implausible",2597.19999990461,1,9,100,"Passed_Immediate",31,"Male",70,0.625
14977587,"6979d0b3ccb73b968dd16580",49,"AI","Friends are important for the health of PROGRAMS",38,"implausible","Implausible",1706.5,1,9,100,"Passed_Immediate",31,"Male",70,0.625
14977587,"6979d0b3ccb73b968dd16580",37,"AI","After they finish learning, there is a graduation party for NEURAL NETWORKS",39,"implausible","Implausible",3257.99999990466,1,9,100,"Passed_Immediate",31,"Male",70,0.625
14977587,"6979d0b3ccb73b968dd16580",43,"AI","When successful, happiness is felt by the SMART DEVICE",40,"implausible","Implausible",812.999999809253,1,9,100,"Passed_Immediate",31,"Male",70,0.625
14977587,"6979d0b3ccb73b968dd16580",62,"Tool","Music is fun to listen to for LAPTOPS",41,"implausible","Implausible",864.599999809288,1,9,100,"Passed_Immediate",31,"Male",70,0.625
14977587,"6979d0b3ccb73b968dd16580",17,"Tool","She insulted the SCOOTER",42,"implausible","Implausible",726.300000190735,1,9,100,"Passed_Immediate",31,"Male",70,0.625
14977587,"6979d0b3ccb73b968dd16580",22,"AI","When we yell at them, we offend the ROBOTS",43,"implausible","Implausible",832.200000190758,1,9,100,"Passed_Immediate",31,"Male",70,0.625
14977587,"6979d0b3ccb73b968dd16580",52,"AI","Some people exploit  GOOGLE ASSISTANTS",44,"implausible","Implausible",1847.00000009534,1,9,100,"Passed_Immediate",31,"Male",70,0.625
14977587,"6979d0b3ccb73b968dd16580",15,"Human","We organized a birthday party for my AUNT",45,"plausible","Plausible",846.899999904621,1,9,100,"Passed_Immediate",31,"Male",70,0.625
14977587,"6979d0b3ccb73b968dd16580",44,"Tool","When successful, happiness is felt by the TAPE MEASURE",46,"implausible","Implausible",316.800000000047,1,9,100,"Passed_Immediate",31,"Male",70,0.625
14977587,"6979d0b3ccb73b968dd16580",2,"Tool","The presidential candidate is an intelligent PICTURE",47,"implausible","Implausible",844.000000095344,1,9,100,"Passed_Immediate",31,"Male",70,0.625
14977587,"6979d0b3ccb73b968dd16580",60,"Human","It is nice to greet an ARTIST",48,"plausible","Plausible",962.000000190746,1,9,100,"Passed_Immediate",31,"Male",70,0.625
14977587,"6979d0b3ccb73b968dd16580",32,"Tool","Curiosity is common in some  CALCULATORS",49,"implausible","Implausible",824.200000190758,1,9,100,"Passed_Immediate",31,"Male",70,0.625
14977587,"6979d0b3ccb73b968dd16580",64,"AI","Together, I sip wine with my CHATBOT",50,"implausible","Implausible",694.099999999977,1,9,100,"Passed_Immediate",31,"Male",70,0.625
14977587,"6979d0b3ccb73b968dd16580",41,"Tool","All should be allowed to be who they want to be, including ELECTRIC GUITARS",51,"implausible","Implausible",550.300000000047,1,9,100,"Passed_Immediate",31,"Male",70,0.625
14977587,"6979d0b3ccb73b968dd16580",18,"Human","She insulted the CASHIER",52,"plausible","Plausible",724.099999809288,1,9,100,"Passed_Immediate",31,"Male",70,0.625
14977587,"6979d0b3ccb73b968dd16580",57,"Human","Literature is a popular subject to choose to study for PHILOSOPHERS",53,"plausible","Plausible",988.100000095379,1,9,100,"Passed_Immediate",31,"Male",70,0.625
14977587,"6979d0b3ccb73b968dd16580",25,"AI","When they get hungry, we feed the INTELLIGENT SYSTEMS",54,"implausible","Implausible",988.499999809254,1,9,100,"Passed_Immediate",31,"Male",70,0.625
14977587,"6979d0b3ccb73b968dd16580",23,"Tool","When we yell at them, we offend the MIRRORS",55,"implausible","Implausible",820.699999809265,1,9,100,"Passed_Immediate",31,"Male",70,0.625
14977587,"6979d0b3ccb73b968dd16580",54,"Human","Some people exploit SOCIAL WORKERS",56,"plausible","Plausible",3089.99999980925,1,9,100,"Passed_Immediate",31,"Male",70,0.625
14977587,"6979d0b3ccb73b968dd16580",53,"Tool","Some people exploit FOOD PROCESSORS",57,"implausible","Implausible",1362.79999999999,1,9,100,"Passed_Immediate",31,"Male",70,0.625
14977587,"6979d0b3ccb73b968dd16580",42,"Human","All should be allowed to be who they want to be, including GRAPHIC DESIGNERS",58,"plausible","Plausible",756.200000000012,1,9,100,"Passed_Immediate",31,"Male",70,0.625
14977587,"6979d0b3ccb73b968dd16580",8,"Tool","Joe is looking to marry a nice STOVE",59,"implausible","Implausible",1425.59999999998,1,9,100,"Passed_Immediate",31,"Male",70,0.625
14977587,"6979d0b3ccb73b968dd16580",12,"Human","I am going to a funeral for my UNCLE",60,"plausible","Plausible",659.399999904621,1,9,100,"Passed_Immediate",31,"Male",70,0.625
14977587,"6979d0b3ccb73b968dd16580",21,"Human","Getting ready for the day is common for ZOOLOGISTS",61,"plausible","Plausible",801.700000095356,1,9,100,"Passed_Immediate",31,"Male",70,0.625
14977587,"6979d0b3ccb73b968dd16580",3,"Human","The presidential candidate is an intelligent TEACHER",62,"plausible","Plausible",981.500000095344,1,9,100,"Passed_Immediate",31,"Male",70,0.625
14977587,"6979d0b3ccb73b968dd16580",26,"Tool","When they get hungry, we feed the SOLDERING IRONS",63,"implausible","Implausible",936,1,9,100,"Passed_Immediate",31,"Male",70,0.625
14977587,"6979d0b3ccb73b968dd16580",14,"Tool","We organized a birthday party for my DRILL",64,"implausible","Implausible",790.5,1,9,100,"Passed_Immediate",31,"Male",70,0.625
14977587,"6979d0b3ccb73b968dd16580",27,"Human","When they get hungry, we feed the IT SPECIALISTS",65,"plausible","Plausible",1523.39999990462,1,9,100,"Passed_Immediate",31,"Male",70,0.625
14977587,"6979d0b3ccb73b968dd16580",29,"Tool","When not talked to, loneliness is felt by the LETTER",66,"implausible","Implausible",2515.19999980927,1,9,100,"Passed_Immediate",31,"Male",70,0.625
14977588,"6979d0cdae67466170b6b75f",39,"Human","After they finish learning, there is a graduation party for  COLLEGE STUDENTS",1,"plausible","Plausible",8664.80000004768,1,9,100,"Passed_Immediate",54,"Male",43,0.625
14977588,"6979d0cdae67466170b6b75f",7,"AI","Joe is looking to marry a nice BOT",2,"implausible","Implausible",951.900000095367,1,9,100,"Passed_Immediate",54,"Male",43,0.625
14977588,"6979d0cdae67466170b6b75f",28,"AI","When not talked to, loneliness is felt by the AI",3,"implausible","Implausible",1216.40000004768,1,9,100,"Passed_Immediate",54,"Male",43,0.625
14977588,"6979d0cdae67466170b6b75f",1,"AI","The presidential candidate is an intelligent PROGRAM",4,"implausible","Implausible",1097.30000009537,1,9,100,"Passed_Immediate",54,"Male",43,0.625
14977588,"6979d0cdae67466170b6b75f",2,"Tool","The presidential candidate is an intelligent PICTURE",5,"implausible","Implausible",960.000000190732,1,9,100,"Passed_Immediate",54,"Male",43,0.625
14977588,"6979d0cdae67466170b6b75f",23,"Tool","When we yell at them, we offend the MIRRORS",6,"implausible","Implausible",1100,1,9,100,"Passed_Immediate",54,"Male",43,0.625
